delay,freq,condition,trials.thisRepN,trials.thisTrialN,trials.thisN,trials.thisIndex,polygon.started,polygon_2.started,key_resp.started,polygon.stopped,key_resp.keys,key_resp.rt,sound_1.started,sound_1.stopped,text.started,textbox.started,button.started,textbox.text,button.numClicks,button.timesOn,button.timesOff,participant,session,date,expName,psychopyVersion,frameRate,
0.1,1000,exp,0,0,0,3,21.182935200165957,22.162363500101492,22.162363500101492,22.195268400013447,space,2.2766548998188227,24.561740719969386,24.863284500082955,24.863284500082955,24.863284500082955,24.863284500082955,120,1,[17.331252000061795],[17.33126200013794],060947,001,2022-11-10_19h31.09.380,intentional binding task,2022.2.3,59.96347025499182,
0.4,1000,exp,0,1,1,10,42.19450889993459,43.19418460014276,43.19418460014276,43.19418460014276,space,0.877402699785307,44.49434251992498,,44.79402970010415,44.79402970010415,44.79402970010415,400,2,"[17.331252000061795, 3.615100499941036]","[17.33126200013794, 3.615108999889344]",060947,001,2022-11-10_19h31.09.380,intentional binding task,2022.2.3,59.96347025499182,
0.4,1000,exp,0,2,2,4,48.410688700154424,49.41067899996415,49.41067899996415,49.41067899996415,space,0.7589856998529285,50.59388002010528,,50.89375460008159,50.89375460008159,50.89375460008159,200,3,"[17.331252000061795, 3.615100499941036, 9.381968999980018]","[17.33126200013794, 3.615108999889344, 9.38197709992528]",060947,001,2022-11-10_19h31.09.380,intentional binding task,2022.2.3,59.96347025499182,
0.7,400,unexp,0,3,3,2,60.27674670005217,61.2768773001153,61.2768773001153,61.2768773001153,space,0.5540879999753088,62.55957271999214,,62.86006440012716,62.86006440012716,62.86006440012716,450,4,"[17.331252000061795, 3.615100499941036, 9.381968999980018, 8.032715700101107]","[17.33126200013794, 3.615108999889344, 9.38197709992528, 8.032724300166592]",060947,001,2022-11-10_19h31.09.380,intentional binding task,2022.2.3,59.96347025499182,
0.4,1000,exp,0,4,4,7,70.89267290011048,71.89267480000854,71.89267480000854,71.89267480000854,space,0.5743848998099566,72.89284761997405,,73.19269820000045,73.19269820000045,73.19269820000045,350,5,"[17.331252000061795, 3.615100499941036, 9.381968999980018, 8.032715700101107, 7.4647699999623]","[17.33126200013794, 3.615108999889344, 9.38197709992528, 8.032724300166592, 7.464778100140393]",060947,001,2022-11-10_19h31.09.380,intentional binding task,2022.2.3,59.96347025499182,
0.1,400,unexp,0,5,5,0,80.65896230004728,81.6589065999724,81.6589065999724,81.6589065999724,space,0.1544644997920841,81.94225362015422,82.24218269996345,82.24218269996345,82.24218269996345,82.24218269996345,450,6,"[17.331252000061795, 3.615100499941036, 9.381968999980018, 8.032715700101107, 7.4647699999623, 4.150133900111541]","[17.33126200013794, 3.615108999889344, 9.38197709992528, 8.032724300166592, 7.464778100140393, 4.150142499944195]",060947,001,2022-11-10_19h31.09.380,intentional binding task,2022.2.3,59.96347025499182,
0.1,1000,exp,0,6,6,9,86.39188250014558,87.39186750003137,87.39186750003137,87.39186750003137,space,0.7138388997409493,88.22541642005089,,88.52531159995124,88.52531159995124,88.52531159995124,200,7,"[17.331252000061795, 3.615100499941036, 9.381968999980018, 8.032715700101107, 7.4647699999623, 4.150133900111541, 5.517208100063726]","[17.33126200013794, 3.615108999889344, 9.38197709992528, 8.032724300166592, 7.464778100140393, 4.150142499944195, 5.517216499894857]",060947,001,2022-11-10_19h31.09.380,intentional binding task,2022.2.3,59.96347025499182,
0.7,1000,exp,0,7,7,11,94.04137150011957,95.04143600002863,95.04143600002863,95.04143600002863,space,0.6803194999229163,96.44146772010717,96.74121540016495,96.74121540016495,96.74121540016495,96.74121540016495,700,8,"[17.331252000061795, 3.615100499941036, 9.381968999980018, 8.032715700101107, 7.4647699999623, 4.150133900111541, 5.517208100063726, 3.4826122999656945]","[17.33126200013794, 3.615108999889344, 9.38197709992528, 8.032724300166592, 7.464778100140393, 4.150142499944195, 5.517216499894857, 3.4826243999414146]",060947,001,2022-11-10_19h31.09.380,intentional binding task,2022.2.3,59.96347025499182,
0.4,400,unexp,0,8,8,1,100.22428090008907,101.22468540002592,101.22468540002592,101.22468540002592,space,0.5451162999961525,102.19105662012007,,102.49109770008363,102.49109770008363,102.49109770008363,400,9,"[17.331252000061795, 3.615100499941036, 9.381968999980018, 8.032715700101107, 7.4647699999623, 4.150133900111541, 5.517208100063726, 3.4826122999656945, 3.9843218000605702]","[17.33126200013794, 3.615108999889344, 9.38197709992528, 8.032724300166592, 7.464778100140393, 4.150142499944195, 5.517216499894857, 3.4826243999414146, 3.9843297998886555]",060947,001,2022-11-10_19h31.09.380,intentional binding task,2022.2.3,59.96347025499182,
0.7,1000,exp,0,9,9,5,106.47416490013711,107.47417700011283,107.47417700011283,107.47417700011283,space,0.47355209989473224,108.67422642002347,,108.97407130012289,108.97407130012289,108.97407130012289,450,10,"[17.331252000061795, 3.615100499941036, 9.381968999980018, 8.032715700101107, 7.4647699999623, 4.150133900111541, 5.517208100063726, 3.4826122999656945, 3.9843218000605702, 5.94872420001775]","[17.33126200013794, 3.615108999889344, 9.38197709992528, 8.032724300166592, 7.464778100140393, 4.150142499944195, 5.517216499894857, 3.4826243999414146, 3.9843297998886555, 5.948732300195843]",060947,001,2022-11-10_19h31.09.380,intentional binding task,2022.2.3,59.96347025499182,
0.1,1000,exp,0,10,10,6,114.92377310013399,115.92367719998583,115.92367719998583,115.92367719998583,space,0.3957561997231096,116.44027452010195,116.7400988000445,116.7400988000445,116.7400988000445,116.7400988000445,100,11,"[17.331252000061795, 3.615100499941036, 9.381968999980018, 8.032715700101107, 7.4647699999623, 4.150133900111541, 5.517208100063726, 3.4826122999656945, 3.9843218000605702, 5.94872420001775, 9.198385500116274]","[17.33126200013794, 3.615108999889344, 9.38197709992528, 8.032724300166592, 7.464778100140393, 4.150142499944195, 5.517216499894857, 3.4826243999414146, 3.9843297998886555, 5.948732300195843, 9.19839350017719]",060947,001,2022-11-10_19h31.09.380,intentional binding task,2022.2.3,59.96347025499182,
0.7,1000,exp,0,11,11,8,125.9396138000302,126.93962040008046,126.93962040008046,126.93962040008046,space,0.2545456998050213,127.92288302003871,128.2228697000537,128.2228697000537,128.2228697000537,128.2228697000537,700,12,"[17.331252000061795, 3.615100499941036, 9.381968999980018, 8.032715700101107, 7.4647699999623, 4.150133900111541, 5.517208100063726, 3.4826122999656945, 3.9843218000605702, 5.94872420001775, 9.198385500116274, 2.6487351001705974]","[17.33126200013794, 3.615108999889344, 9.38197709992528, 8.032724300166592, 7.464778100140393, 4.150142499944195, 5.517216499894857, 3.4826243999414146, 3.9843297998886555, 5.948732300195843, 9.19839350017719, 2.6487432001158595]",060947,001,2022-11-10_19h31.09.380,intentional binding task,2022.2.3,59.96347025499182,
0.1,1000,exp,1,0,12,9,130.8728332000319,131.87286280002445,131.87286280002445,131.87286280002445,space,0.4909163999836892,132.48933151995297,132.78919319994748,132.78919319994748,132.78919319994748,132.78919319994748,100,13,"[17.331252000061795, 3.615100499941036, 9.381968999980018, 8.032715700101107, 7.4647699999623, 4.150133900111541, 5.517208100063726, 3.4826122999656945, 3.9843218000605702, 5.94872420001775, 9.198385500116274, 2.6487351001705974, 3.199034499935806]","[17.33126200013794, 3.615108999889344, 9.38197709992528, 8.032724300166592, 7.464778100140393, 4.150142499944195, 5.517216499894857, 3.4826243999414146, 3.9843297998886555, 5.948732300195843, 9.19839350017719, 2.6487432001158595, 3.1990606000181288]",060947,001,2022-11-10_19h31.09.380,intentional binding task,2022.2.3,59.96347025499182,
0.1,1000,exp,1,1,13,6,135.989124200074,136.98902920004912,136.98902920004912,136.98902920004912,space,0.759964499855414,137.87237822010647,,138.17244460014626,138.17244460014626,138.17244460014626,100,14,"[17.331252000061795, 3.615100499941036, 9.381968999980018, 8.032715700101107, 7.4647699999623, 4.150133900111541, 5.517208100063726, 3.4826122999656945, 3.9843218000605702, 5.94872420001775, 9.198385500116274, 2.6487351001705974, 3.199034499935806, 2.632444200105965]","[17.33126200013794, 3.615108999889344, 9.38197709992528, 8.032724300166592, 7.464778100140393, 4.150142499944195, 5.517216499894857, 3.4826243999414146, 3.9843297998886555, 5.948732300195843, 9.19839350017719, 2.6487432001158595, 3.1990606000181288, 2.63245250005275]",060947,001,2022-11-10_19h31.09.380,intentional binding task,2022.2.3,59.96347025499182,
0.7,1000,exp,1,2,14,5,140.80561739997938,141.80574510013685,141.80574510013685,141.80574510013685,space,0.500784199917689,143.03866552005056,,143.3386723001022,143.3386723001022,143.3386723001022,100,15,"[17.331252000061795, 3.615100499941036, 9.381968999980018, 8.032715700101107, 7.4647699999623, 4.150133900111541, 5.517208100063726, 3.4826122999656945, 3.9843218000605702, 5.94872420001775, 9.198385500116274, 2.6487351001705974, 3.199034499935806, 2.632444200105965, 3.1988899998832494]","[17.33126200013794, 3.615108999889344, 9.38197709992528, 8.032724300166592, 7.464778100140393, 4.150142499944195, 5.517216499894857, 3.4826243999414146, 3.9843297998886555, 5.948732300195843, 9.19839350017719, 2.6487432001158595, 3.1990606000181288, 2.63245250005275, 3.198898399947211]",060947,001,2022-11-10_19h31.09.380,intentional binding task,2022.2.3,59.96347025499182,
0.1,400,unexp,1,3,15,0,146.53849659999833,147.5384819000028,147.5384819000028,147.5384819000028,space,0.73799779987894,148.40501092004124,,148.7050902999472,148.7050902999472,148.7050902999472,300,16,"[17.331252000061795, 3.615100499941036, 9.381968999980018, 8.032715700101107, 7.4647699999623, 4.150133900111541, 5.517208100063726, 3.4826122999656945, 3.9843218000605702, 5.94872420001775, 9.198385500116274, 2.6487351001705974, 3.199034499935806, 2.632444200105965, 3.1988899998832494, 5.650538200046867]","[17.33126200013794, 3.615108999889344, 9.38197709992528, 8.032724300166592, 7.464778100140393, 4.150142499944195, 5.517216499894857, 3.4826243999414146, 3.9843297998886555, 5.948732300195843, 9.19839350017719, 2.6487432001158595, 3.1990606000181288, 2.63245250005275, 3.198898399947211, 5.650546099990606]",060947,001,2022-11-10_19h31.09.380,intentional binding task,2022.2.3,59.96347025499182,
0.4,1000,exp,1,4,16,10,154.3549738000147,155.35487830010243,155.35487830010243,155.35487830010243,space,0.6259337996598333,156.40434741999488,,156.704656700138,156.704656700138,156.704656700138,100,17,"[17.331252000061795, 3.615100499941036, 9.381968999980018, 8.032715700101107, 7.4647699999623, 4.150133900111541, 5.517208100063726, 3.4826122999656945, 3.9843218000605702, 5.94872420001775, 9.198385500116274, 2.6487351001705974, 3.199034499935806, 2.632444200105965, 3.1988899998832494, 5.650538200046867, 3.932604500092566]","[17.33126200013794, 3.615108999889344, 9.38197709992528, 8.032724300166592, 7.464778100140393, 4.150142499944195, 5.517216499894857, 3.4826243999414146, 3.9843297998886555, 5.948732300195843, 9.19839350017719, 2.6487432001158595, 3.1990606000181288, 2.63245250005275, 3.198898399947211, 5.650546099990606, 3.9326136000454426]",060947,001,2022-11-10_19h31.09.380,intentional binding task,2022.2.3,59.96347025499182,
0.7,1000,exp,1,5,17,8,160.6375573000405,161.6376287001185,161.6376287001185,161.6376287001185,space,0.7351953000761569,163.10409592001233,,163.40427200007252,163.40427200007252,163.40427200007252,400,18,"[17.331252000061795, 3.615100499941036, 9.381968999980018, 8.032715700101107, 7.4647699999623, 4.150133900111541, 5.517208100063726, 3.4826122999656945, 3.9843218000605702, 5.94872420001775, 9.198385500116274, 2.6487351001705974, 3.199034499935806, 2.632444200105965, 3.1988899998832494, 5.650538200046867, 3.932604500092566, 3.34873399999924]","[17.33126200013794, 3.615108999889344, 9.38197709992528, 8.032724300166592, 7.464778100140393, 4.150142499944195, 5.517216499894857, 3.4826243999414146, 3.9843297998886555, 5.948732300195843, 9.19839350017719, 2.6487432001158595, 3.1990606000181288, 2.63245250005275, 3.198898399947211, 5.650546099990606, 3.9326136000454426, 3.3487421998288482]",060947,001,2022-11-10_19h31.09.380,intentional binding task,2022.2.3,59.96347025499182,
0.4,400,unexp,1,6,18,1,166.75408320012502,167.75397350010462,167.75397350010462,167.75397350010462,space,0.6644688998349011,168.83735632013995,169.13739849999547,169.13739849999547,169.13739849999547,169.13739849999547,200,19,"[17.331252000061795, 3.615100499941036, 9.381968999980018, 8.032715700101107, 7.4647699999623, 4.150133900111541, 5.517208100063726, 3.4826122999656945, 3.9843218000605702, 5.94872420001775, 9.198385500116274, 2.6487351001705974, 3.199034499935806, 2.632444200105965, 3.1988899998832494, 5.650538200046867, 3.932604500092566, 3.34873399999924, 6.614921000087634]","[17.33126200013794, 3.615108999889344, 9.38197709992528, 8.032724300166592, 7.464778100140393, 4.150142499944195, 5.517216499894857, 3.4826243999414146, 3.9843297998886555, 5.948732300195843, 9.19839350017719, 2.6487432001158595, 3.1990606000181288, 2.63245250005275, 3.198898399947211, 5.650546099990606, 3.9326136000454426, 3.3487421998288482, 6.6149294001515955]",060947,001,2022-11-10_19h31.09.380,intentional binding task,2022.2.3,59.96347025499182,
0.7,400,unexp,1,7,19,2,175.7536119001452,176.75363839999773,176.75363839999773,176.75363839999773,space,0.3088746997527778,177.78692452006507,,178.08682229998522,178.08682229998522,178.08682229998522,200,20,"[17.331252000061795, 3.615100499941036, 9.381968999980018, 8.032715700101107, 7.4647699999623, 4.150133900111541, 5.517208100063726, 3.4826122999656945, 3.9843218000605702, 5.94872420001775, 9.198385500116274, 2.6487351001705974, 3.199034499935806, 2.632444200105965, 3.1988899998832494, 5.650538200046867, 3.932604500092566, 3.34873399999924, 6.614921000087634, 2.415664399974048]","[17.33126200013794, 3.615108999889344, 9.38197709992528, 8.032724300166592, 7.464778100140393, 4.150142499944195, 5.517216499894857, 3.4826243999414146, 3.9843297998886555, 5.948732300195843, 9.19839350017719, 2.6487432001158595, 3.1990606000181288, 2.63245250005275, 3.198898399947211, 5.650546099990606, 3.9326136000454426, 3.3487421998288482, 6.6149294001515955, 2.41567280003801]",060947,001,2022-11-10_19h31.09.380,intentional binding task,2022.2.3,59.96347025499182,
0.7,1000,exp,1,8,20,11,180.50340140005574,181.503400699934,181.503400699934,181.503400699934,space,1.1978635999839753,183.4197783200303,,183.72002200013958,183.72002200013958,183.72002200013958,700,21,"[17.331252000061795, 3.615100499941036, 9.381968999980018, 8.032715700101107, 7.4647699999623, 4.150133900111541, 5.517208100063726, 3.4826122999656945, 3.9843218000605702, 5.94872420001775, 9.198385500116274, 2.6487351001705974, 3.199034499935806, 2.632444200105965, 3.1988899998832494, 5.650538200046867, 3.932604500092566, 3.34873399999924, 6.614921000087634, 2.415664399974048, 3.631351799936965]","[17.33126200013794, 3.615108999889344, 9.38197709992528, 8.032724300166592, 7.464778100140393, 4.150142499944195, 5.517216499894857, 3.4826243999414146, 3.9843297998886555, 5.948732300195843, 9.19839350017719, 2.6487432001158595, 3.1990606000181288, 2.63245250005275, 3.198898399947211, 5.650546099990606, 3.9326136000454426, 3.3487421998288482, 6.6149294001515955, 2.41567280003801, 3.631360200000927]",060947,001,2022-11-10_19h31.09.380,intentional binding task,2022.2.3,59.96347025499182,
0.4,1000,exp,1,9,21,4,187.35310259996913,188.35302940011024,188.35302940011024,188.35302940011024,space,0.3498458999674767,189.11958041999023,,189.41954510007054,189.41954510007054,189.41954510007054,700,22,"[17.331252000061795, 3.615100499941036, 9.381968999980018, 8.032715700101107, 7.4647699999623, 4.150133900111541, 5.517208100063726, 3.4826122999656945, 3.9843218000605702, 5.94872420001775, 9.198385500116274, 2.6487351001705974, 3.199034499935806, 2.632444200105965, 3.1988899998832494, 5.650538200046867, 3.932604500092566, 3.34873399999924, 6.614921000087634, 2.415664399974048, 3.631351799936965, 2.633474500151351]","[17.33126200013794, 3.615108999889344, 9.38197709992528, 8.032724300166592, 7.464778100140393, 4.150142499944195, 5.517216499894857, 3.4826243999414146, 3.9843297998886555, 5.948732300195843, 9.19839350017719, 2.6487432001158595, 3.1990606000181288, 2.63245250005275, 3.198898399947211, 5.650546099990606, 3.9326136000454426, 3.3487421998288482, 6.6149294001515955, 2.41567280003801, 3.631360200000927, 2.6334834001027048]",060947,001,2022-11-10_19h31.09.380,intentional binding task,2022.2.3,59.96347025499182,
0.4,1000,exp,1,10,22,7,192.0527405999601,193.05278489994816,193.05278489994816,193.05278489994816,space,0.3055291997734457,193.7858753199922,,194.08575920015574,194.08575920015574,194.08575920015574,700,23,"[17.331252000061795, 3.615100499941036, 9.381968999980018, 8.032715700101107, 7.4647699999623, 4.150133900111541, 5.517208100063726, 3.4826122999656945, 3.9843218000605702, 5.94872420001775, 9.198385500116274, 2.6487351001705974, 3.199034499935806, 2.632444200105965, 3.1988899998832494, 5.650538200046867, 3.932604500092566, 3.34873399999924, 6.614921000087634, 2.415664399974048, 3.631351799936965, 2.633474500151351, 2.4003210000228137]","[17.33126200013794, 3.615108999889344, 9.38197709992528, 8.032724300166592, 7.464778100140393, 4.150142499944195, 5.517216499894857, 3.4826243999414146, 3.9843297998886555, 5.948732300195843, 9.19839350017719, 2.6487432001158595, 3.1990606000181288, 2.63245250005275, 3.198898399947211, 5.650546099990606, 3.9326136000454426, 3.3487421998288482, 6.6149294001515955, 2.41567280003801, 3.631360200000927, 2.6334834001027048, 2.4003290000837296]",060947,001,2022-11-10_19h31.09.380,intentional binding task,2022.2.3,59.96347025499182,
0.1,1000,exp,1,11,23,3,196.4858759001363,197.4857966999989,197.4857966999989,197.4857966999989,space,0.7134451998863369,198.31932872000615,198.6190947999712,198.6190947999712,198.6190947999712,198.6190947999712,700,24,"[17.331252000061795, 3.615100499941036, 9.381968999980018, 8.032715700101107, 7.4647699999623, 4.150133900111541, 5.517208100063726, 3.4826122999656945, 3.9843218000605702, 5.94872420001775, 9.198385500116274, 2.6487351001705974, 3.199034499935806, 2.632444200105965, 3.1988899998832494, 5.650538200046867, 3.932604500092566, 3.34873399999924, 6.614921000087634, 2.415664399974048, 3.631351799936965, 2.633474500151351, 2.4003210000228137, 2.3660233998671174]","[17.33126200013794, 3.615108999889344, 9.38197709992528, 8.032724300166592, 7.464778100140393, 4.150142499944195, 5.517216499894857, 3.4826243999414146, 3.9843297998886555, 5.948732300195843, 9.19839350017719, 2.6487432001158595, 3.1990606000181288, 2.63245250005275, 3.198898399947211, 5.650546099990606, 3.9326136000454426, 3.3487421998288482, 6.6149294001515955, 2.41567280003801, 3.631360200000927, 2.6334834001027048, 2.4003290000837296, 2.3660315999295563]",060947,001,2022-11-10_19h31.09.380,intentional binding task,2022.2.3,59.96347025499182,
0.7,1000,exp,2,0,24,8,200.9854081000667,201.98538359999657,201.98538359999657,201.98538359999657,space,0.680120499804616,203.38558892,,203.685175599996,203.685175599996,203.685175599996,700,25,"[17.331252000061795, 3.615100499941036, 9.381968999980018, 8.032715700101107, 7.4647699999623, 4.150133900111541, 5.517208100063726, 3.4826122999656945, 3.9843218000605702, 5.94872420001775, 9.198385500116274, 2.6487351001705974, 3.199034499935806, 2.632444200105965, 3.1988899998832494, 5.650538200046867, 3.932604500092566, 3.34873399999924, 6.614921000087634, 2.415664399974048, 3.631351799936965, 2.633474500151351, 2.4003210000228137, 2.3660233998671174, 3.1487483999226242]","[17.33126200013794, 3.615108999889344, 9.38197709992528, 8.032724300166592, 7.464778100140393, 4.150142499944195, 5.517216499894857, 3.4826243999414146, 3.9843297998886555, 5.948732300195843, 9.19839350017719, 2.6487432001158595, 3.1990606000181288, 2.63245250005275, 3.198898399947211, 5.650546099990606, 3.9326136000454426, 3.3487421998288482, 6.6149294001515955, 2.41567280003801, 3.631360200000927, 2.6334834001027048, 2.4003290000837296, 2.3660315999295563, 3.1487571999896318]",060947,001,2022-11-10_19h31.09.380,intentional binding task,2022.2.3,59.96347025499182,
0.7,1000,exp,2,1,25,11,206.83509130007587,207.83485750015825,207.83485750015825,207.83485750015825,space,0.31003419985063374,208.8684439200675,,209.16840309998952,209.16840309998952,209.16840309998952,700,26,"[17.331252000061795, 3.615100499941036, 9.381968999980018, 8.032715700101107, 7.4647699999623, 4.150133900111541, 5.517208100063726, 3.4826122999656945, 3.9843218000605702, 5.94872420001775, 9.198385500116274, 2.6487351001705974, 3.199034499935806, 2.632444200105965, 3.1988899998832494, 5.650538200046867, 3.932604500092566, 3.34873399999924, 6.614921000087634, 2.415664399974048, 3.631351799936965, 2.633474500151351, 2.4003210000228137, 2.3660233998671174, 3.1487483999226242, 2.367383899865672]","[17.33126200013794, 3.615108999889344, 9.38197709992528, 8.032724300166592, 7.464778100140393, 4.150142499944195, 5.517216499894857, 3.4826243999414146, 3.9843297998886555, 5.948732300195843, 9.19839350017719, 2.6487432001158595, 3.1990606000181288, 2.63245250005275, 3.198898399947211, 5.650546099990606, 3.9326136000454426, 3.3487421998288482, 6.6149294001515955, 2.41567280003801, 3.631360200000927, 2.6334834001027048, 2.4003290000837296, 2.3660315999295563, 3.1487571999896318, 2.367393499938771]",060947,001,2022-11-10_19h31.09.380,intentional binding task,2022.2.3,59.96347025499182,
0.1,400,unexp,2,2,26,0,211.53499069996178,212.5349137999583,212.5349137999583,212.5349137999583,space,1.4274384998716414,214.08487121996004,214.3846571999602,214.3846571999602,214.3846571999602,214.3846571999602,400,27,"[17.331252000061795, 3.615100499941036, 9.381968999980018, 8.032715700101107, 7.4647699999623, 4.150133900111541, 5.517208100063726, 3.4826122999656945, 3.9843218000605702, 5.94872420001775, 9.198385500116274, 2.6487351001705974, 3.199034499935806, 2.632444200105965, 3.1988899998832494, 5.650538200046867, 3.932604500092566, 3.34873399999924, 6.614921000087634, 2.415664399974048, 3.631351799936965, 2.633474500151351, 2.4003210000228137, 2.3660233998671174, 3.1487483999226242, 2.367383899865672, 2.982429899973795]","[17.33126200013794, 3.615108999889344, 9.38197709992528, 8.032724300166592, 7.464778100140393, 4.150142499944195, 5.517216499894857, 3.4826243999414146, 3.9843297998886555, 5.948732300195843, 9.19839350017719, 2.6487432001158595, 3.1990606000181288, 2.63245250005275, 3.198898399947211, 5.650546099990606, 3.9326136000454426, 3.3487421998288482, 6.6149294001515955, 2.41567280003801, 3.631360200000927, 2.6334834001027048, 2.4003290000837296, 2.3660315999295563, 3.1487571999896318, 2.367393499938771, 2.982437799917534]",060947,001,2022-11-10_19h31.09.380,intentional binding task,2022.2.3,59.96347025499182,
0.4,1000,exp,2,3,27,4,217.36798640014604,218.36792300012894,218.36792300012894,218.36792300012894,space,0.3603765999432653,219.15096542008686,,219.45123030012473,219.45123030012473,219.45123030012473,700,28,"[17.331252000061795, 3.615100499941036, 9.381968999980018, 8.032715700101107, 7.4647699999623, 4.150133900111541, 5.517208100063726, 3.4826122999656945, 3.9843218000605702, 5.94872420001775, 9.198385500116274, 2.6487351001705974, 3.199034499935806, 2.632444200105965, 3.1988899998832494, 5.650538200046867, 3.932604500092566, 3.34873399999924, 6.614921000087634, 2.415664399974048, 3.631351799936965, 2.633474500151351, 2.4003210000228137, 2.3660233998671174, 3.1487483999226242, 2.367383899865672, 2.982429899973795, 5.43289290019311]","[17.33126200013794, 3.615108999889344, 9.38197709992528, 8.032724300166592, 7.464778100140393, 4.150142499944195, 5.517216499894857, 3.4826243999414146, 3.9843297998886555, 5.948732300195843, 9.19839350017719, 2.6487432001158595, 3.1990606000181288, 2.63245250005275, 3.198898399947211, 5.650546099990606, 3.9326136000454426, 3.3487421998288482, 6.6149294001515955, 2.41567280003801, 3.631360200000927, 2.6334834001027048, 2.4003290000837296, 2.3660315999295563, 3.1487571999896318, 2.367393499938771, 2.982437799917534, 5.432901400141418]",060947,001,2022-11-10_19h31.09.380,intentional binding task,2022.2.3,59.96347025499182,
0.4,1000,exp,2,4,28,10,224.88402780005708,225.88398299994878,225.88398299994878,225.88398299994878,space,0.28345019998960197,226.58413052002433,,226.8839147000108,226.8839147000108,226.8839147000108,100,29,"[17.331252000061795, 3.615100499941036, 9.381968999980018, 8.032715700101107, 7.4647699999623, 4.150133900111541, 5.517208100063726, 3.4826122999656945, 3.9843218000605702, 5.94872420001775, 9.198385500116274, 2.6487351001705974, 3.199034499935806, 2.632444200105965, 3.1988899998832494, 5.650538200046867, 3.932604500092566, 3.34873399999924, 6.614921000087634, 2.415664399974048, 3.631351799936965, 2.633474500151351, 2.4003210000228137, 2.3660233998671174, 3.1487483999226242, 2.367383899865672, 2.982429899973795, 5.43289290019311, 8.482244800077751]","[17.33126200013794, 3.615108999889344, 9.38197709992528, 8.032724300166592, 7.464778100140393, 4.150142499944195, 5.517216499894857, 3.4826243999414146, 3.9843297998886555, 5.948732300195843, 9.19839350017719, 2.6487432001158595, 3.1990606000181288, 2.63245250005275, 3.198898399947211, 5.650546099990606, 3.9326136000454426, 3.3487421998288482, 6.6149294001515955, 2.41567280003801, 3.631360200000927, 2.6334834001027048, 2.4003290000837296, 2.3660315999295563, 3.1487571999896318, 2.367393499938771, 2.982437799917534, 5.432901400141418, 8.482253200141713]",060947,001,2022-11-10_19h31.09.380,intentional binding task,2022.2.3,59.96347025499182,
0.4,1000,exp,2,5,29,7,235.36708640004508,236.36713819997385,236.36713819997385,236.36713819997385,space,0.7320335998665541,237.51699612012598,,237.81689150002785,237.81689150002785,237.81689150002785,100,30,"[17.331252000061795, 3.615100499941036, 9.381968999980018, 8.032715700101107, 7.4647699999623, 4.150133900111541, 5.517208100063726, 3.4826122999656945, 3.9843218000605702, 5.94872420001775, 9.198385500116274, 2.6487351001705974, 3.199034499935806, 2.632444200105965, 3.1988899998832494, 5.650538200046867, 3.932604500092566, 3.34873399999924, 6.614921000087634, 2.415664399974048, 3.631351799936965, 2.633474500151351, 2.4003210000228137, 2.3660233998671174, 3.1487483999226242, 2.367383899865672, 2.982429899973795, 5.43289290019311, 8.482244800077751, 3.0317965000867844]","[17.33126200013794, 3.615108999889344, 9.38197709992528, 8.032724300166592, 7.464778100140393, 4.150142499944195, 5.517216499894857, 3.4826243999414146, 3.9843297998886555, 5.948732300195843, 9.19839350017719, 2.6487432001158595, 3.1990606000181288, 2.63245250005275, 3.198898399947211, 5.650546099990606, 3.9326136000454426, 3.3487421998288482, 6.6149294001515955, 2.41567280003801, 3.631360200000927, 2.6334834001027048, 2.4003290000837296, 2.3660315999295563, 3.1487571999896318, 2.367393499938771, 2.982437799917534, 5.432901400141418, 8.482253200141713, 3.0318046000320464]",060947,001,2022-11-10_19h31.09.380,intentional binding task,2022.2.3,59.96347025499182,
0.1,1000,exp,2,6,30,9,240.8499776001554,241.84991300012916,241.84991300012916,241.84991300012916,space,0.3946515996940434,242.36655792014207,,242.66657950007357,242.66657950007357,242.66657950007357,100,31,"[17.331252000061795, 3.615100499941036, 9.381968999980018, 8.032715700101107, 7.4647699999623, 4.150133900111541, 5.517208100063726, 3.4826122999656945, 3.9843218000605702, 5.94872420001775, 9.198385500116274, 2.6487351001705974, 3.199034499935806, 2.632444200105965, 3.1988899998832494, 5.650538200046867, 3.932604500092566, 3.34873399999924, 6.614921000087634, 2.415664399974048, 3.631351799936965, 2.633474500151351, 2.4003210000228137, 2.3660233998671174, 3.1487483999226242, 2.367383899865672, 2.982429899973795, 5.43289290019311, 8.482244800077751, 3.0317965000867844, 2.44939409988001]","[17.33126200013794, 3.615108999889344, 9.38197709992528, 8.032724300166592, 7.464778100140393, 4.150142499944195, 5.517216499894857, 3.4826243999414146, 3.9843297998886555, 5.948732300195843, 9.19839350017719, 2.6487432001158595, 3.1990606000181288, 2.63245250005275, 3.198898399947211, 5.650546099990606, 3.9326136000454426, 3.3487421998288482, 6.6149294001515955, 2.41567280003801, 3.631360200000927, 2.6334834001027048, 2.4003290000837296, 2.3660315999295563, 3.1487571999896318, 2.367393499938771, 2.982437799917534, 5.432901400141418, 8.482253200141713, 3.0318046000320464, 2.4494024999439716]",060947,001,2022-11-10_19h31.09.380,intentional binding task,2022.2.3,59.96347025499182,
0.1,1000,exp,2,7,31,6,245.1164100000169,246.11654710001312,246.11654710001312,246.11654710001312,space,0.3244951998349279,246.56635902009438,246.86629789997824,246.86629789997824,246.86629789997824,246.86629789997824,100,32,"[17.331252000061795, 3.615100499941036, 9.381968999980018, 8.032715700101107, 7.4647699999623, 4.150133900111541, 5.517208100063726, 3.4826122999656945, 3.9843218000605702, 5.94872420001775, 9.198385500116274, 2.6487351001705974, 3.199034499935806, 2.632444200105965, 3.1988899998832494, 5.650538200046867, 3.932604500092566, 3.34873399999924, 6.614921000087634, 2.415664399974048, 3.631351799936965, 2.633474500151351, 2.4003210000228137, 2.3660233998671174, 3.1487483999226242, 2.367383899865672, 2.982429899973795, 5.43289290019311, 8.482244800077751, 3.0317965000867844, 2.44939409988001, 3.3487595000769943]","[17.33126200013794, 3.615108999889344, 9.38197709992528, 8.032724300166592, 7.464778100140393, 4.150142499944195, 5.517216499894857, 3.4826243999414146, 3.9843297998886555, 5.948732300195843, 9.19839350017719, 2.6487432001158595, 3.1990606000181288, 2.63245250005275, 3.198898399947211, 5.650546099990606, 3.9326136000454426, 3.3487421998288482, 6.6149294001515955, 2.41567280003801, 3.631360200000927, 2.6334834001027048, 2.4003290000837296, 2.3660315999295563, 3.1487571999896318, 2.367393499938771, 2.982437799917534, 5.432901400141418, 8.482253200141713, 3.0318046000320464, 2.4494024999439716, 3.3487678000237793]",060947,001,2022-11-10_19h31.09.380,intentional binding task,2022.2.3,59.96347025499182,
0.7,400,unexp,2,8,32,2,250.21617659996264,251.2161071000155,251.2161071000155,251.2161071000155,space,0.4875157999340445,252.43270571997854,,252.73267469997518,252.73267469997518,252.73267469997518,700,33,"[17.331252000061795, 3.615100499941036, 9.381968999980018, 8.032715700101107, 7.4647699999623, 4.150133900111541, 5.517208100063726, 3.4826122999656945, 3.9843218000605702, 5.94872420001775, 9.198385500116274, 2.6487351001705974, 3.199034499935806, 2.632444200105965, 3.1988899998832494, 5.650538200046867, 3.932604500092566, 3.34873399999924, 6.614921000087634, 2.415664399974048, 3.631351799936965, 2.633474500151351, 2.4003210000228137, 2.3660233998671174, 3.1487483999226242, 2.367383899865672, 2.982429899973795, 5.43289290019311, 8.482244800077751, 3.0317965000867844, 2.44939409988001, 3.3487595000769943, 3.3838659999892116]","[17.33126200013794, 3.615108999889344, 9.38197709992528, 8.032724300166592, 7.464778100140393, 4.150142499944195, 5.517216499894857, 3.4826243999414146, 3.9843297998886555, 5.948732300195843, 9.19839350017719, 2.6487432001158595, 3.1990606000181288, 2.63245250005275, 3.198898399947211, 5.650546099990606, 3.9326136000454426, 3.3487421998288482, 6.6149294001515955, 2.41567280003801, 3.631360200000927, 2.6334834001027048, 2.4003290000837296, 2.3660315999295563, 3.1487571999896318, 2.367393499938771, 2.982437799917534, 5.432901400141418, 8.482253200141713, 3.0318046000320464, 2.4494024999439716, 3.3487678000237793, 3.3838745998218656]",060947,001,2022-11-10_19h31.09.380,intentional binding task,2022.2.3,59.96347025499182,
0.4,400,unexp,2,9,33,1,256.1157712000422,257.1158756001387,257.1158756001387,257.1158756001387,space,0.6884775999933481,258.2323661200004,,258.5322298000101,258.5322298000101,258.5322298000101,700,34,"[17.331252000061795, 3.615100499941036, 9.381968999980018, 8.032715700101107, 7.4647699999623, 4.150133900111541, 5.517208100063726, 3.4826122999656945, 3.9843218000605702, 5.94872420001775, 9.198385500116274, 2.6487351001705974, 3.199034499935806, 2.632444200105965, 3.1988899998832494, 5.650538200046867, 3.932604500092566, 3.34873399999924, 6.614921000087634, 2.415664399974048, 3.631351799936965, 2.633474500151351, 2.4003210000228137, 2.3660233998671174, 3.1487483999226242, 2.367383899865672, 2.982429899973795, 5.43289290019311, 8.482244800077751, 3.0317965000867844, 2.44939409988001, 3.3487595000769943, 3.3838659999892116, 2.5991109998431057]","[17.33126200013794, 3.615108999889344, 9.38197709992528, 8.032724300166592, 7.464778100140393, 4.150142499944195, 5.517216499894857, 3.4826243999414146, 3.9843297998886555, 5.948732300195843, 9.19839350017719, 2.6487432001158595, 3.1990606000181288, 2.63245250005275, 3.198898399947211, 5.650546099990606, 3.9326136000454426, 3.3487421998288482, 6.6149294001515955, 2.41567280003801, 3.631360200000927, 2.6334834001027048, 2.4003290000837296, 2.3660315999295563, 3.1487571999896318, 2.367393499938771, 2.982437799917534, 5.432901400141418, 8.482253200141713, 3.0318046000320464, 2.4494024999439716, 3.3487678000237793, 3.3838745998218656, 2.5991187999024987]",060947,001,2022-11-10_19h31.09.380,intentional binding task,2022.2.3,59.96347025499182,
0.7,1000,exp,2,10,34,5,261.1321579001378,262.13210220006295,262.13210220006295,262.13210220006295,space,0.2924179998226464,263.1485103201354,,263.44882460008375,263.44882460008375,263.44882460008375,700,35,"[17.331252000061795, 3.615100499941036, 9.381968999980018, 8.032715700101107, 7.4647699999623, 4.150133900111541, 5.517208100063726, 3.4826122999656945, 3.9843218000605702, 5.94872420001775, 9.198385500116274, 2.6487351001705974, 3.199034499935806, 2.632444200105965, 3.1988899998832494, 5.650538200046867, 3.932604500092566, 3.34873399999924, 6.614921000087634, 2.415664399974048, 3.631351799936965, 2.633474500151351, 2.4003210000228137, 2.3660233998671174, 3.1487483999226242, 2.367383899865672, 2.982429899973795, 5.43289290019311, 8.482244800077751, 3.0317965000867844, 2.44939409988001, 3.3487595000769943, 3.3838659999892116, 2.5991109998431057, 2.69974509999156]","[17.33126200013794, 3.615108999889344, 9.38197709992528, 8.032724300166592, 7.464778100140393, 4.150142499944195, 5.517216499894857, 3.4826243999414146, 3.9843297998886555, 5.948732300195843, 9.19839350017719, 2.6487432001158595, 3.1990606000181288, 2.63245250005275, 3.198898399947211, 5.650546099990606, 3.9326136000454426, 3.3487421998288482, 6.6149294001515955, 2.41567280003801, 3.631360200000927, 2.6334834001027048, 2.4003290000837296, 2.3660315999295563, 3.1487571999896318, 2.367393499938771, 2.982437799917534, 5.432901400141418, 8.482253200141713, 3.0318046000320464, 2.4494024999439716, 3.3487678000237793, 3.3838745998218656, 2.5991187999024987, 2.6997539000585675]",060947,001,2022-11-10_19h31.09.380,intentional binding task,2022.2.3,59.96347025499182,
0.1,1000,exp,2,11,35,3,266.148579900153,267.1486587000545,267.1486587000545,267.1486587000545,space,0.5417114000301808,267.8151200199733,,268.11521540000103,268.11521540000103,268.11521540000103,100,36,"[17.331252000061795, 3.615100499941036, 9.381968999980018, 8.032715700101107, 7.4647699999623, 4.150133900111541, 5.517208100063726, 3.4826122999656945, 3.9843218000605702, 5.94872420001775, 9.198385500116274, 2.6487351001705974, 3.199034499935806, 2.632444200105965, 3.1988899998832494, 5.650538200046867, 3.932604500092566, 3.34873399999924, 6.614921000087634, 2.415664399974048, 3.631351799936965, 2.633474500151351, 2.4003210000228137, 2.3660233998671174, 3.1487483999226242, 2.367383899865672, 2.982429899973795, 5.43289290019311, 8.482244800077751, 3.0317965000867844, 2.44939409988001, 3.3487595000769943, 3.3838659999892116, 2.5991109998431057, 2.69974509999156, 3.498591900104657]","[17.33126200013794, 3.615108999889344, 9.38197709992528, 8.032724300166592, 7.464778100140393, 4.150142499944195, 5.517216499894857, 3.4826243999414146, 3.9843297998886555, 5.948732300195843, 9.19839350017719, 2.6487432001158595, 3.1990606000181288, 2.63245250005275, 3.198898399947211, 5.650546099990606, 3.9326136000454426, 3.3487421998288482, 6.6149294001515955, 2.41567280003801, 3.631360200000927, 2.6334834001027048, 2.4003290000837296, 2.3660315999295563, 3.1487571999896318, 2.367393499938771, 2.982437799917534, 5.432901400141418, 8.482253200141713, 3.0318046000320464, 2.4494024999439716, 3.3487678000237793, 3.3838745998218656, 2.5991187999024987, 2.6997539000585675, 3.498601899947971]",060947,001,2022-11-10_19h31.09.380,intentional binding task,2022.2.3,59.96347025499182,
0.7,400,unexp,3,0,36,2,271.61490439996123,272.61496550007723,272.61496550007723,272.61496550007723,space,0.43083309987559915,273.76478072002067,,274.06475990009494,274.06475990009494,274.06475990009494,400,37,"[17.331252000061795, 3.615100499941036, 9.381968999980018, 8.032715700101107, 7.4647699999623, 4.150133900111541, 5.517208100063726, 3.4826122999656945, 3.9843218000605702, 5.94872420001775, 9.198385500116274, 2.6487351001705974, 3.199034499935806, 2.632444200105965, 3.1988899998832494, 5.650538200046867, 3.932604500092566, 3.34873399999924, 6.614921000087634, 2.415664399974048, 3.631351799936965, 2.633474500151351, 2.4003210000228137, 2.3660233998671174, 3.1487483999226242, 2.367383899865672, 2.982429899973795, 5.43289290019311, 8.482244800077751, 3.0317965000867844, 2.44939409988001, 3.3487595000769943, 3.3838659999892116, 2.5991109998431057, 2.69974509999156, 3.498591900104657, 3.365880599943921]","[17.33126200013794, 3.615108999889344, 9.38197709992528, 8.032724300166592, 7.464778100140393, 4.150142499944195, 5.517216499894857, 3.4826243999414146, 3.9843297998886555, 5.948732300195843, 9.19839350017719, 2.6487432001158595, 3.1990606000181288, 2.63245250005275, 3.198898399947211, 5.650546099990606, 3.9326136000454426, 3.3487421998288482, 6.6149294001515955, 2.41567280003801, 3.631360200000927, 2.6334834001027048, 2.4003290000837296, 2.3660315999295563, 3.1487571999896318, 2.367393499938771, 2.982437799917534, 5.432901400141418, 8.482253200141713, 3.0318046000320464, 2.4494024999439716, 3.3487678000237793, 3.3838745998218656, 2.5991187999024987, 2.6997539000585675, 3.498601899947971, 3.365888600004837]",060947,001,2022-11-10_19h31.09.380,intentional binding task,2022.2.3,59.96347025499182,
0.4,1000,exp,3,1,37,4,277.4311339999549,278.43101130006835,278.43101130006835,278.43101130006835,space,0.27655179984867573,279.1310718199471,,279.4309718001168,279.4309718001168,279.4309718001168,100,38,"[17.331252000061795, 3.615100499941036, 9.381968999980018, 8.032715700101107, 7.4647699999623, 4.150133900111541, 5.517208100063726, 3.4826122999656945, 3.9843218000605702, 5.94872420001775, 9.198385500116274, 2.6487351001705974, 3.199034499935806, 2.632444200105965, 3.1988899998832494, 5.650538200046867, 3.932604500092566, 3.34873399999924, 6.614921000087634, 2.415664399974048, 3.631351799936965, 2.633474500151351, 2.4003210000228137, 2.3660233998671174, 3.1487483999226242, 2.367383899865672, 2.982429899973795, 5.43289290019311, 8.482244800077751, 3.0317965000867844, 2.44939409988001, 3.3487595000769943, 3.3838659999892116, 2.5991109998431057, 2.69974509999156, 3.498591900104657, 3.365880599943921, 2.682385800173506]","[17.33126200013794, 3.615108999889344, 9.38197709992528, 8.032724300166592, 7.464778100140393, 4.150142499944195, 5.517216499894857, 3.4826243999414146, 3.9843297998886555, 5.948732300195843, 9.19839350017719, 2.6487432001158595, 3.1990606000181288, 2.63245250005275, 3.198898399947211, 5.650546099990606, 3.9326136000454426, 3.3487421998288482, 6.6149294001515955, 2.41567280003801, 3.631360200000927, 2.6334834001027048, 2.4003290000837296, 2.3660315999295563, 3.1487571999896318, 2.367393499938771, 2.982437799917534, 5.432901400141418, 8.482253200141713, 3.0318046000320464, 2.4494024999439716, 3.3487678000237793, 3.3838745998218656, 2.5991187999024987, 2.6997539000585675, 3.498601899947971, 3.365888600004837, 2.6823937001172453]",060947,001,2022-11-10_19h31.09.380,intentional binding task,2022.2.3,59.96347025499182,
0.7,1000,exp,3,2,38,11,282.1143309001345,283.1143579999916,283.1143579999916,283.1143579999916,space,0.5567814998794347,284.3974477199605,284.69758499995805,284.69758499995805,284.69758499995805,284.69758499995805,400,39,"[17.331252000061795, 3.615100499941036, 9.381968999980018, 8.032715700101107, 7.4647699999623, 4.150133900111541, 5.517208100063726, 3.4826122999656945, 3.9843218000605702, 5.94872420001775, 9.198385500116274, 2.6487351001705974, 3.199034499935806, 2.632444200105965, 3.1988899998832494, 5.650538200046867, 3.932604500092566, 3.34873399999924, 6.614921000087634, 2.415664399974048, 3.631351799936965, 2.633474500151351, 2.4003210000228137, 2.3660233998671174, 3.1487483999226242, 2.367383899865672, 2.982429899973795, 5.43289290019311, 8.482244800077751, 3.0317965000867844, 2.44939409988001, 3.3487595000769943, 3.3838659999892116, 2.5991109998431057, 2.69974509999156, 3.498591900104657, 3.365880599943921, 2.682385800173506, 3.6155161999631673]","[17.33126200013794, 3.615108999889344, 9.38197709992528, 8.032724300166592, 7.464778100140393, 4.150142499944195, 5.517216499894857, 3.4826243999414146, 3.9843297998886555, 5.948732300195843, 9.19839350017719, 2.6487432001158595, 3.1990606000181288, 2.63245250005275, 3.198898399947211, 5.650546099990606, 3.9326136000454426, 3.3487421998288482, 6.6149294001515955, 2.41567280003801, 3.631360200000927, 2.6334834001027048, 2.4003290000837296, 2.3660315999295563, 3.1487571999896318, 2.367393499938771, 2.982437799917534, 5.432901400141418, 8.482253200141713, 3.0318046000320464, 2.4494024999439716, 3.3487678000237793, 3.3838745998218656, 2.5991187999024987, 2.6997539000585675, 3.498601899947971, 3.365888600004837, 2.6823937001172453, 3.615524500142783]",060947,001,2022-11-10_19h31.09.380,intentional binding task,2022.2.3,59.96347025499182,
0.7,1000,exp,3,3,39,5,288.31402430008166,289.3138834000565,289.3138834000565,289.3138834000565,space,0.5648443999234587,290.5971884201514,290.89727420010604,290.89727420010604,290.89727420010604,290.89727420010604,700,40,"[17.331252000061795, 3.615100499941036, 9.381968999980018, 8.032715700101107, 7.4647699999623, 4.150133900111541, 5.517208100063726, 3.4826122999656945, 3.9843218000605702, 5.94872420001775, 9.198385500116274, 2.6487351001705974, 3.199034499935806, 2.632444200105965, 3.1988899998832494, 5.650538200046867, 3.932604500092566, 3.34873399999924, 6.614921000087634, 2.415664399974048, 3.631351799936965, 2.633474500151351, 2.4003210000228137, 2.3660233998671174, 3.1487483999226242, 2.367383899865672, 2.982429899973795, 5.43289290019311, 8.482244800077751, 3.0317965000867844, 2.44939409988001, 3.3487595000769943, 3.3838659999892116, 2.5991109998431057, 2.69974509999156, 3.498591900104657, 3.365880599943921, 2.682385800173506, 3.6155161999631673, 2.3820958000142127]","[17.33126200013794, 3.615108999889344, 9.38197709992528, 8.032724300166592, 7.464778100140393, 4.150142499944195, 5.517216499894857, 3.4826243999414146, 3.9843297998886555, 5.948732300195843, 9.19839350017719, 2.6487432001158595, 3.1990606000181288, 2.63245250005275, 3.198898399947211, 5.650546099990606, 3.9326136000454426, 3.3487421998288482, 6.6149294001515955, 2.41567280003801, 3.631360200000927, 2.6334834001027048, 2.4003290000837296, 2.3660315999295563, 3.1487571999896318, 2.367393499938771, 2.982437799917534, 5.432901400141418, 8.482253200141713, 3.0318046000320464, 2.4494024999439716, 3.3487678000237793, 3.3838745998218656, 2.5991187999024987, 2.6997539000585675, 3.498601899947971, 3.365888600004837, 2.6823937001172453, 3.615524500142783, 2.382103799842298]",060947,001,2022-11-10_19h31.09.380,intentional binding task,2022.2.3,59.96347025499182,
0.4,400,unexp,3,4,40,1,293.28020879998803,294.28042059997097,294.28042059997097,294.28042059997097,space,0.8208912997506559,295.5302980200155,,295.8301210999489,295.8301210999489,295.8301210999489,100,41,"[17.331252000061795, 3.615100499941036, 9.381968999980018, 8.032715700101107, 7.4647699999623, 4.150133900111541, 5.517208100063726, 3.4826122999656945, 3.9843218000605702, 5.94872420001775, 9.198385500116274, 2.6487351001705974, 3.199034499935806, 2.632444200105965, 3.1988899998832494, 5.650538200046867, 3.932604500092566, 3.34873399999924, 6.614921000087634, 2.415664399974048, 3.631351799936965, 2.633474500151351, 2.4003210000228137, 2.3660233998671174, 3.1487483999226242, 2.367383899865672, 2.982429899973795, 5.43289290019311, 8.482244800077751, 3.0317965000867844, 2.44939409988001, 3.3487595000769943, 3.3838659999892116, 2.5991109998431057, 2.69974509999156, 3.498591900104657, 3.365880599943921, 2.682385800173506, 3.6155161999631673, 2.3820958000142127, 3.932350100018084]","[17.33126200013794, 3.615108999889344, 9.38197709992528, 8.032724300166592, 7.464778100140393, 4.150142499944195, 5.517216499894857, 3.4826243999414146, 3.9843297998886555, 5.948732300195843, 9.19839350017719, 2.6487432001158595, 3.1990606000181288, 2.63245250005275, 3.198898399947211, 5.650546099990606, 3.9326136000454426, 3.3487421998288482, 6.6149294001515955, 2.41567280003801, 3.631360200000927, 2.6334834001027048, 2.4003290000837296, 2.3660315999295563, 3.1487571999896318, 2.367393499938771, 2.982437799917534, 5.432901400141418, 8.482253200141713, 3.0318046000320464, 2.4494024999439716, 3.3487678000237793, 3.3838745998218656, 2.5991187999024987, 2.6997539000585675, 3.498601899947971, 3.365888600004837, 2.6823937001172453, 3.615524500142783, 2.382103799842298, 3.932358300080523]",060947,001,2022-11-10_19h31.09.380,intentional binding task,2022.2.3,59.96347025499182,
0.1,1000,exp,3,5,41,3,299.7633992000483,300.76338770007715,300.76338770007715,300.76338770007715,space,0.7397488998249173,301.6298421200132,,301.92970420001075,301.92970420001075,301.92970420001075,100,42,"[17.331252000061795, 3.615100499941036, 9.381968999980018, 8.032715700101107, 7.4647699999623, 4.150133900111541, 5.517208100063726, 3.4826122999656945, 3.9843218000605702, 5.94872420001775, 9.198385500116274, 2.6487351001705974, 3.199034499935806, 2.632444200105965, 3.1988899998832494, 5.650538200046867, 3.932604500092566, 3.34873399999924, 6.614921000087634, 2.415664399974048, 3.631351799936965, 2.633474500151351, 2.4003210000228137, 2.3660233998671174, 3.1487483999226242, 2.367383899865672, 2.982429899973795, 5.43289290019311, 8.482244800077751, 3.0317965000867844, 2.44939409988001, 3.3487595000769943, 3.3838659999892116, 2.5991109998431057, 2.69974509999156, 3.498591900104657, 3.365880599943921, 2.682385800173506, 3.6155161999631673, 2.3820958000142127, 3.932350100018084, 3.348129600053653]","[17.33126200013794, 3.615108999889344, 9.38197709992528, 8.032724300166592, 7.464778100140393, 4.150142499944195, 5.517216499894857, 3.4826243999414146, 3.9843297998886555, 5.948732300195843, 9.19839350017719, 2.6487432001158595, 3.1990606000181288, 2.63245250005275, 3.198898399947211, 5.650546099990606, 3.9326136000454426, 3.3487421998288482, 6.6149294001515955, 2.41567280003801, 3.631360200000927, 2.6334834001027048, 2.4003290000837296, 2.3660315999295563, 3.1487571999896318, 2.367393499938771, 2.982437799917534, 5.432901400141418, 8.482253200141713, 3.0318046000320464, 2.4494024999439716, 3.3487678000237793, 3.3838745998218656, 2.5991187999024987, 2.6997539000585675, 3.498601899947971, 3.365888600004837, 2.6823937001172453, 3.615524500142783, 2.382103799842298, 3.932358300080523, 3.348137900000438]",060947,001,2022-11-10_19h31.09.380,intentional binding task,2022.2.3,59.96347025499182,
0.1,1000,exp,3,6,42,9,305.2795935999602,306.2792990000453,306.2792990000453,306.2792990000453,space,0.689352799905464,307.09605572002476,307.3963008001447,307.3963008001447,307.3963008001447,307.3963008001447,100,43,"[17.331252000061795, 3.615100499941036, 9.381968999980018, 8.032715700101107, 7.4647699999623, 4.150133900111541, 5.517208100063726, 3.4826122999656945, 3.9843218000605702, 5.94872420001775, 9.198385500116274, 2.6487351001705974, 3.199034499935806, 2.632444200105965, 3.1988899998832494, 5.650538200046867, 3.932604500092566, 3.34873399999924, 6.614921000087634, 2.415664399974048, 3.631351799936965, 2.633474500151351, 2.4003210000228137, 2.3660233998671174, 3.1487483999226242, 2.367383899865672, 2.982429899973795, 5.43289290019311, 8.482244800077751, 3.0317965000867844, 2.44939409988001, 3.3487595000769943, 3.3838659999892116, 2.5991109998431057, 2.69974509999156, 3.498591900104657, 3.365880599943921, 2.682385800173506, 3.6155161999631673, 2.3820958000142127, 3.932350100018084, 3.348129600053653, 3.1820322000421584]","[17.33126200013794, 3.615108999889344, 9.38197709992528, 8.032724300166592, 7.464778100140393, 4.150142499944195, 5.517216499894857, 3.4826243999414146, 3.9843297998886555, 5.948732300195843, 9.19839350017719, 2.6487432001158595, 3.1990606000181288, 2.63245250005275, 3.198898399947211, 5.650546099990606, 3.9326136000454426, 3.3487421998288482, 6.6149294001515955, 2.41567280003801, 3.631360200000927, 2.6334834001027048, 2.4003290000837296, 2.3660315999295563, 3.1487571999896318, 2.367393499938771, 2.982437799917534, 5.432901400141418, 8.482253200141713, 3.0318046000320464, 2.4494024999439716, 3.3487678000237793, 3.3838745998218656, 2.5991187999024987, 2.6997539000585675, 3.498601899947971, 3.365888600004837, 2.6823937001172453, 3.615524500142783, 2.382103799842298, 3.932358300080523, 3.348137900000438, 3.1820406999904662]",060947,001,2022-11-10_19h31.09.380,intentional binding task,2022.2.3,59.96347025499182,
0.4,1000,exp,3,7,43,7,310.5793304000981,311.57939630001783,311.57939630001783,311.57939630001783,space,0.3100101000163704,312.3126179201296,,312.612684099935,312.612684099935,312.612684099935,100,44,"[17.331252000061795, 3.615100499941036, 9.381968999980018, 8.032715700101107, 7.4647699999623, 4.150133900111541, 5.517208100063726, 3.4826122999656945, 3.9843218000605702, 5.94872420001775, 9.198385500116274, 2.6487351001705974, 3.199034499935806, 2.632444200105965, 3.1988899998832494, 5.650538200046867, 3.932604500092566, 3.34873399999924, 6.614921000087634, 2.415664399974048, 3.631351799936965, 2.633474500151351, 2.4003210000228137, 2.3660233998671174, 3.1487483999226242, 2.367383899865672, 2.982429899973795, 5.43289290019311, 8.482244800077751, 3.0317965000867844, 2.44939409988001, 3.3487595000769943, 3.3838659999892116, 2.5991109998431057, 2.69974509999156, 3.498591900104657, 3.365880599943921, 2.682385800173506, 3.6155161999631673, 2.3820958000142127, 3.932350100018084, 3.348129600053653, 3.1820322000421584, 6.865407100180164]","[17.33126200013794, 3.615108999889344, 9.38197709992528, 8.032724300166592, 7.464778100140393, 4.150142499944195, 5.517216499894857, 3.4826243999414146, 3.9843297998886555, 5.948732300195843, 9.19839350017719, 2.6487432001158595, 3.1990606000181288, 2.63245250005275, 3.198898399947211, 5.650546099990606, 3.9326136000454426, 3.3487421998288482, 6.6149294001515955, 2.41567280003801, 3.631360200000927, 2.6334834001027048, 2.4003290000837296, 2.3660315999295563, 3.1487571999896318, 2.367393499938771, 2.982437799917534, 5.432901400141418, 8.482253200141713, 3.0318046000320464, 2.4494024999439716, 3.3487678000237793, 3.3838745998218656, 2.5991187999024987, 2.6997539000585675, 3.498601899947971, 3.365888600004837, 2.6823937001172453, 3.615524500142783, 2.382103799842298, 3.932358300080523, 3.348137900000438, 3.1820406999904662, 6.865415300009772]",060947,001,2022-11-10_19h31.09.380,intentional binding task,2022.2.3,59.96347025499182,
0.4,1000,exp,3,8,44,10,319.47880839998834,320.4787677000277,320.4787677000277,320.4787677000277,space,0.3715985999442637,321.2790199199459,,321.57856049994007,321.57856049994007,321.57856049994007,100,45,"[17.331252000061795, 3.615100499941036, 9.381968999980018, 8.032715700101107, 7.4647699999623, 4.150133900111541, 5.517208100063726, 3.4826122999656945, 3.9843218000605702, 5.94872420001775, 9.198385500116274, 2.6487351001705974, 3.199034499935806, 2.632444200105965, 3.1988899998832494, 5.650538200046867, 3.932604500092566, 3.34873399999924, 6.614921000087634, 2.415664399974048, 3.631351799936965, 2.633474500151351, 2.4003210000228137, 2.3660233998671174, 3.1487483999226242, 2.367383899865672, 2.982429899973795, 5.43289290019311, 8.482244800077751, 3.0317965000867844, 2.44939409988001, 3.3487595000769943, 3.3838659999892116, 2.5991109998431057, 2.69974509999156, 3.498591900104657, 3.365880599943921, 2.682385800173506, 3.6155161999631673, 2.3820958000142127, 3.932350100018084, 3.348129600053653, 3.1820322000421584, 6.865407100180164, 2.750822399975732]","[17.33126200013794, 3.615108999889344, 9.38197709992528, 8.032724300166592, 7.464778100140393, 4.150142499944195, 5.517216499894857, 3.4826243999414146, 3.9843297998886555, 5.948732300195843, 9.19839350017719, 2.6487432001158595, 3.1990606000181288, 2.63245250005275, 3.198898399947211, 5.650546099990606, 3.9326136000454426, 3.3487421998288482, 6.6149294001515955, 2.41567280003801, 3.631360200000927, 2.6334834001027048, 2.4003290000837296, 2.3660315999295563, 3.1487571999896318, 2.367393499938771, 2.982437799917534, 5.432901400141418, 8.482253200141713, 3.0318046000320464, 2.4494024999439716, 3.3487678000237793, 3.3838745998218656, 2.5991187999024987, 2.6997539000585675, 3.498601899947971, 3.365888600004837, 2.6823937001172453, 3.615524500142783, 2.382103799842298, 3.932358300080523, 3.348137900000438, 3.1820406999904662, 6.865415300009772, 2.7508305001538247]",060947,001,2022-11-10_19h31.09.380,intentional binding task,2022.2.3,59.96347025499182,
0.1,1000,exp,3,9,45,6,324.32863819994964,325.3286836000625,325.3286836000625,325.3286836000625,space,0.2769785998389125,325.7286567199277,,326.0283983000554,326.0283983000554,326.0283983000554,100,46,"[17.331252000061795, 3.615100499941036, 9.381968999980018, 8.032715700101107, 7.4647699999623, 4.150133900111541, 5.517208100063726, 3.4826122999656945, 3.9843218000605702, 5.94872420001775, 9.198385500116274, 2.6487351001705974, 3.199034499935806, 2.632444200105965, 3.1988899998832494, 5.650538200046867, 3.932604500092566, 3.34873399999924, 6.614921000087634, 2.415664399974048, 3.631351799936965, 2.633474500151351, 2.4003210000228137, 2.3660233998671174, 3.1487483999226242, 2.367383899865672, 2.982429899973795, 5.43289290019311, 8.482244800077751, 3.0317965000867844, 2.44939409988001, 3.3487595000769943, 3.3838659999892116, 2.5991109998431057, 2.69974509999156, 3.498591900104657, 3.365880599943921, 2.682385800173506, 3.6155161999631673, 2.3820958000142127, 3.932350100018084, 3.348129600053653, 3.1820322000421584, 6.865407100180164, 2.750822399975732, 2.5338450998533517]","[17.33126200013794, 3.615108999889344, 9.38197709992528, 8.032724300166592, 7.464778100140393, 4.150142499944195, 5.517216499894857, 3.4826243999414146, 3.9843297998886555, 5.948732300195843, 9.19839350017719, 2.6487432001158595, 3.1990606000181288, 2.63245250005275, 3.198898399947211, 5.650546099990606, 3.9326136000454426, 3.3487421998288482, 6.6149294001515955, 2.41567280003801, 3.631360200000927, 2.6334834001027048, 2.4003290000837296, 2.3660315999295563, 3.1487571999896318, 2.367393499938771, 2.982437799917534, 5.432901400141418, 8.482253200141713, 3.0318046000320464, 2.4494024999439716, 3.3487678000237793, 3.3838745998218656, 2.5991187999024987, 2.6997539000585675, 3.498601899947971, 3.365888600004837, 2.6823937001172453, 3.615524500142783, 2.382103799842298, 3.932358300080523, 3.348137900000438, 3.1820406999904662, 6.865415300009772, 2.7508305001538247, 2.533852699911222]",060947,001,2022-11-10_19h31.09.380,intentional binding task,2022.2.3,59.96347025499182,
0.7,1000,exp,3,10,46,8,328.5617444999516,329.56180960009806,329.56180960009806,329.56180960009806,space,0.43096029991284013,330.7117855199846,,331.0116270999424,331.0116270999424,331.0116270999424,100,47,"[17.331252000061795, 3.615100499941036, 9.381968999980018, 8.032715700101107, 7.4647699999623, 4.150133900111541, 5.517208100063726, 3.4826122999656945, 3.9843218000605702, 5.94872420001775, 9.198385500116274, 2.6487351001705974, 3.199034499935806, 2.632444200105965, 3.1988899998832494, 5.650538200046867, 3.932604500092566, 3.34873399999924, 6.614921000087634, 2.415664399974048, 3.631351799936965, 2.633474500151351, 2.4003210000228137, 2.3660233998671174, 3.1487483999226242, 2.367383899865672, 2.982429899973795, 5.43289290019311, 8.482244800077751, 3.0317965000867844, 2.44939409988001, 3.3487595000769943, 3.3838659999892116, 2.5991109998431057, 2.69974509999156, 3.498591900104657, 3.365880599943921, 2.682385800173506, 3.6155161999631673, 2.3820958000142127, 3.932350100018084, 3.348129600053653, 3.1820322000421584, 6.865407100180164, 2.750822399975732, 2.5338450998533517, 2.6988059000577778]","[17.33126200013794, 3.615108999889344, 9.38197709992528, 8.032724300166592, 7.464778100140393, 4.150142499944195, 5.517216499894857, 3.4826243999414146, 3.9843297998886555, 5.948732300195843, 9.19839350017719, 2.6487432001158595, 3.1990606000181288, 2.63245250005275, 3.198898399947211, 5.650546099990606, 3.9326136000454426, 3.3487421998288482, 6.6149294001515955, 2.41567280003801, 3.631360200000927, 2.6334834001027048, 2.4003290000837296, 2.3660315999295563, 3.1487571999896318, 2.367393499938771, 2.982437799917534, 5.432901400141418, 8.482253200141713, 3.0318046000320464, 2.4494024999439716, 3.3487678000237793, 3.3838745998218656, 2.5991187999024987, 2.6997539000585675, 3.498601899947971, 3.365888600004837, 2.6823937001172453, 3.615524500142783, 2.382103799842298, 3.932358300080523, 3.348137900000438, 3.1820406999904662, 6.865415300009772, 2.7508305001538247, 2.533852699911222, 2.6988150998950005]",060947,001,2022-11-10_19h31.09.380,intentional binding task,2022.2.3,59.96347025499182,
0.1,400,unexp,3,11,47,0,333.71155340014957,334.7115551000461,334.7115551000461,334.7115551000461,space,0.43774309987202287,335.27821742000526,335.5777825000696,335.5777825000696,335.5777825000696,335.5777825000696,100,48,"[17.331252000061795, 3.615100499941036, 9.381968999980018, 8.032715700101107, 7.4647699999623, 4.150133900111541, 5.517208100063726, 3.4826122999656945, 3.9843218000605702, 5.94872420001775, 9.198385500116274, 2.6487351001705974, 3.199034499935806, 2.632444200105965, 3.1988899998832494, 5.650538200046867, 3.932604500092566, 3.34873399999924, 6.614921000087634, 2.415664399974048, 3.631351799936965, 2.633474500151351, 2.4003210000228137, 2.3660233998671174, 3.1487483999226242, 2.367383899865672, 2.982429899973795, 5.43289290019311, 8.482244800077751, 3.0317965000867844, 2.44939409988001, 3.3487595000769943, 3.3838659999892116, 2.5991109998431057, 2.69974509999156, 3.498591900104657, 3.365880599943921, 2.682385800173506, 3.6155161999631673, 2.3820958000142127, 3.932350100018084, 3.348129600053653, 3.1820322000421584, 6.865407100180164, 2.750822399975732, 2.5338450998533517, 2.6988059000577778, 3.5343983999919146]","[17.33126200013794, 3.615108999889344, 9.38197709992528, 8.032724300166592, 7.464778100140393, 4.150142499944195, 5.517216499894857, 3.4826243999414146, 3.9843297998886555, 5.948732300195843, 9.19839350017719, 2.6487432001158595, 3.1990606000181288, 2.63245250005275, 3.198898399947211, 5.650546099990606, 3.9326136000454426, 3.3487421998288482, 6.6149294001515955, 2.41567280003801, 3.631360200000927, 2.6334834001027048, 2.4003290000837296, 2.3660315999295563, 3.1487571999896318, 2.367393499938771, 2.982437799917534, 5.432901400141418, 8.482253200141713, 3.0318046000320464, 2.4494024999439716, 3.3487678000237793, 3.3838745998218656, 2.5991187999024987, 2.6997539000585675, 3.498601899947971, 3.365888600004837, 2.6823937001172453, 3.615524500142783, 2.382103799842298, 3.932358300080523, 3.348137900000438, 3.1820406999904662, 6.865415300009772, 2.7508305001538247, 2.533852699911222, 2.6988150998950005, 3.5344077998306602]",060947,001,2022-11-10_19h31.09.380,intentional binding task,2022.2.3,59.96347025499182,
0.7,400,unexp,4,0,48,2,339.1112983999774,340.1111322999932,340.1111322999932,340.1111322999932,space,0.3026181999593973,341.14426682007036,,341.44444670015946,341.44444670015946,341.44444670015946,700,49,"[17.331252000061795, 3.615100499941036, 9.381968999980018, 8.032715700101107, 7.4647699999623, 4.150133900111541, 5.517208100063726, 3.4826122999656945, 3.9843218000605702, 5.94872420001775, 9.198385500116274, 2.6487351001705974, 3.199034499935806, 2.632444200105965, 3.1988899998832494, 5.650538200046867, 3.932604500092566, 3.34873399999924, 6.614921000087634, 2.415664399974048, 3.631351799936965, 2.633474500151351, 2.4003210000228137, 2.3660233998671174, 3.1487483999226242, 2.367383899865672, 2.982429899973795, 5.43289290019311, 8.482244800077751, 3.0317965000867844, 2.44939409988001, 3.3487595000769943, 3.3838659999892116, 2.5991109998431057, 2.69974509999156, 3.498591900104657, 3.365880599943921, 2.682385800173506, 3.6155161999631673, 2.3820958000142127, 3.932350100018084, 3.348129600053653, 3.1820322000421584, 6.865407100180164, 2.750822399975732, 2.5338450998533517, 2.6988059000577778, 3.5343983999919146, 3.2991710999049246]","[17.33126200013794, 3.615108999889344, 9.38197709992528, 8.032724300166592, 7.464778100140393, 4.150142499944195, 5.517216499894857, 3.4826243999414146, 3.9843297998886555, 5.948732300195843, 9.19839350017719, 2.6487432001158595, 3.1990606000181288, 2.63245250005275, 3.198898399947211, 5.650546099990606, 3.9326136000454426, 3.3487421998288482, 6.6149294001515955, 2.41567280003801, 3.631360200000927, 2.6334834001027048, 2.4003290000837296, 2.3660315999295563, 3.1487571999896318, 2.367393499938771, 2.982437799917534, 5.432901400141418, 8.482253200141713, 3.0318046000320464, 2.4494024999439716, 3.3487678000237793, 3.3838745998218656, 2.5991187999024987, 2.6997539000585675, 3.498601899947971, 3.365888600004837, 2.6823937001172453, 3.615524500142783, 2.382103799842298, 3.932358300080523, 3.348137900000438, 3.1820406999904662, 6.865415300009772, 2.7508305001538247, 2.533852699911222, 2.6988150998950005, 3.5344077998306602, 3.2991794999688864]",060947,001,2022-11-10_19h31.09.380,intentional binding task,2022.2.3,59.96347025499182,
0.1,1000,exp,4,1,49,6,344.7441668000538,345.74414329999126,345.74414329999126,345.74414329999126,space,0.8260953999124467,346.6941396200797,,346.99412779998966,346.99412779998966,346.99412779998966,100,50,"[17.331252000061795, 3.615100499941036, 9.381968999980018, 8.032715700101107, 7.4647699999623, 4.150133900111541, 5.517208100063726, 3.4826122999656945, 3.9843218000605702, 5.94872420001775, 9.198385500116274, 2.6487351001705974, 3.199034499935806, 2.632444200105965, 3.1988899998832494, 5.650538200046867, 3.932604500092566, 3.34873399999924, 6.614921000087634, 2.415664399974048, 3.631351799936965, 2.633474500151351, 2.4003210000228137, 2.3660233998671174, 3.1487483999226242, 2.367383899865672, 2.982429899973795, 5.43289290019311, 8.482244800077751, 3.0317965000867844, 2.44939409988001, 3.3487595000769943, 3.3838659999892116, 2.5991109998431057, 2.69974509999156, 3.498591900104657, 3.365880599943921, 2.682385800173506, 3.6155161999631673, 2.3820958000142127, 3.932350100018084, 3.348129600053653, 3.1820322000421584, 6.865407100180164, 2.750822399975732, 2.5338450998533517, 2.6988059000577778, 3.5343983999919146, 3.2991710999049246, 4.482547800056636]","[17.33126200013794, 3.615108999889344, 9.38197709992528, 8.032724300166592, 7.464778100140393, 4.150142499944195, 5.517216499894857, 3.4826243999414146, 3.9843297998886555, 5.948732300195843, 9.19839350017719, 2.6487432001158595, 3.1990606000181288, 2.63245250005275, 3.198898399947211, 5.650546099990606, 3.9326136000454426, 3.3487421998288482, 6.6149294001515955, 2.41567280003801, 3.631360200000927, 2.6334834001027048, 2.4003290000837296, 2.3660315999295563, 3.1487571999896318, 2.367393499938771, 2.982437799917534, 5.432901400141418, 8.482253200141713, 3.0318046000320464, 2.4494024999439716, 3.3487678000237793, 3.3838745998218656, 2.5991187999024987, 2.6997539000585675, 3.498601899947971, 3.365888600004837, 2.6823937001172453, 3.615524500142783, 2.382103799842298, 3.932358300080523, 3.348137900000438, 3.1820406999904662, 6.865415300009772, 2.7508305001538247, 2.533852699911222, 2.6988150998950005, 3.5344077998306602, 3.2991794999688864, 4.4825557000003755]",060947,001,2022-11-10_19h31.09.380,intentional binding task,2022.2.3,59.96347025499182,
0.1,1000,exp,4,2,50,3,351.47698180004954,352.4770218001213,352.4770218001213,352.4770218001213,space,0.5516971996985376,353.1603864201112,,353.4606429000851,353.4606429000851,353.4606429000851,100,51,"[17.331252000061795, 3.615100499941036, 9.381968999980018, 8.032715700101107, 7.4647699999623, 4.150133900111541, 5.517208100063726, 3.4826122999656945, 3.9843218000605702, 5.94872420001775, 9.198385500116274, 2.6487351001705974, 3.199034499935806, 2.632444200105965, 3.1988899998832494, 5.650538200046867, 3.932604500092566, 3.34873399999924, 6.614921000087634, 2.415664399974048, 3.631351799936965, 2.633474500151351, 2.4003210000228137, 2.3660233998671174, 3.1487483999226242, 2.367383899865672, 2.982429899973795, 5.43289290019311, 8.482244800077751, 3.0317965000867844, 2.44939409988001, 3.3487595000769943, 3.3838659999892116, 2.5991109998431057, 2.69974509999156, 3.498591900104657, 3.365880599943921, 2.682385800173506, 3.6155161999631673, 2.3820958000142127, 3.932350100018084, 3.348129600053653, 3.1820322000421584, 6.865407100180164, 2.750822399975732, 2.5338450998533517, 2.6988059000577778, 3.5343983999919146, 3.2991710999049246, 4.482547800056636, 3.2978986999951303]","[17.33126200013794, 3.615108999889344, 9.38197709992528, 8.032724300166592, 7.464778100140393, 4.150142499944195, 5.517216499894857, 3.4826243999414146, 3.9843297998886555, 5.948732300195843, 9.19839350017719, 2.6487432001158595, 3.1990606000181288, 2.63245250005275, 3.198898399947211, 5.650546099990606, 3.9326136000454426, 3.3487421998288482, 6.6149294001515955, 2.41567280003801, 3.631360200000927, 2.6334834001027048, 2.4003290000837296, 2.3660315999295563, 3.1487571999896318, 2.367393499938771, 2.982437799917534, 5.432901400141418, 8.482253200141713, 3.0318046000320464, 2.4494024999439716, 3.3487678000237793, 3.3838745998218656, 2.5991187999024987, 2.6997539000585675, 3.498601899947971, 3.365888600004837, 2.6823937001172453, 3.615524500142783, 2.382103799842298, 3.932358300080523, 3.348137900000438, 3.1820406999904662, 6.865415300009772, 2.7508305001538247, 2.533852699911222, 2.6988150998950005, 3.5344077998306602, 3.2991794999688864, 4.4825557000003755, 3.297907399944961]",060947,001,2022-11-10_19h31.09.380,intentional binding task,2022.2.3,59.96347025499182,
0.4,1000,exp,4,3,51,4,356.76039439998567,357.7602008001413,357.7602008001413,357.7602008001413,space,0.2925700999330729,358.4768728199648,,358.7764616999775,358.7764616999775,358.7764616999775,100,52,"[17.331252000061795, 3.615100499941036, 9.381968999980018, 8.032715700101107, 7.4647699999623, 4.150133900111541, 5.517208100063726, 3.4826122999656945, 3.9843218000605702, 5.94872420001775, 9.198385500116274, 2.6487351001705974, 3.199034499935806, 2.632444200105965, 3.1988899998832494, 5.650538200046867, 3.932604500092566, 3.34873399999924, 6.614921000087634, 2.415664399974048, 3.631351799936965, 2.633474500151351, 2.4003210000228137, 2.3660233998671174, 3.1487483999226242, 2.367383899865672, 2.982429899973795, 5.43289290019311, 8.482244800077751, 3.0317965000867844, 2.44939409988001, 3.3487595000769943, 3.3838659999892116, 2.5991109998431057, 2.69974509999156, 3.498591900104657, 3.365880599943921, 2.682385800173506, 3.6155161999631673, 2.3820958000142127, 3.932350100018084, 3.348129600053653, 3.1820322000421584, 6.865407100180164, 2.750822399975732, 2.5338450998533517, 2.6988059000577778, 3.5343983999919146, 3.2991710999049246, 4.482547800056636, 3.2978986999951303, 2.2320711999200284]","[17.33126200013794, 3.615108999889344, 9.38197709992528, 8.032724300166592, 7.464778100140393, 4.150142499944195, 5.517216499894857, 3.4826243999414146, 3.9843297998886555, 5.948732300195843, 9.19839350017719, 2.6487432001158595, 3.1990606000181288, 2.63245250005275, 3.198898399947211, 5.650546099990606, 3.9326136000454426, 3.3487421998288482, 6.6149294001515955, 2.41567280003801, 3.631360200000927, 2.6334834001027048, 2.4003290000837296, 2.3660315999295563, 3.1487571999896318, 2.367393499938771, 2.982437799917534, 5.432901400141418, 8.482253200141713, 3.0318046000320464, 2.4494024999439716, 3.3487678000237793, 3.3838745998218656, 2.5991187999024987, 2.6997539000585675, 3.498601899947971, 3.365888600004837, 2.6823937001172453, 3.615524500142783, 2.382103799842298, 3.932358300080523, 3.348137900000438, 3.1820406999904662, 6.865415300009772, 2.7508305001538247, 2.533852699911222, 2.6988150998950005, 3.5344077998306602, 3.2991794999688864, 4.4825557000003755, 3.297907399944961, 2.2320796998683363]",060947,001,2022-11-10_19h31.09.380,intentional binding task,2022.2.3,59.96347025499182,
0.7,1000,exp,4,4,52,5,361.0099421001505,362.01007289998233,362.01007289998233,362.01007289998233,space,0.4558925998862833,363.1931135200663,,363.49318740004674,363.49318740004674,363.49318740004674,100,53,"[17.331252000061795, 3.615100499941036, 9.381968999980018, 8.032715700101107, 7.4647699999623, 4.150133900111541, 5.517208100063726, 3.4826122999656945, 3.9843218000605702, 5.94872420001775, 9.198385500116274, 2.6487351001705974, 3.199034499935806, 2.632444200105965, 3.1988899998832494, 5.650538200046867, 3.932604500092566, 3.34873399999924, 6.614921000087634, 2.415664399974048, 3.631351799936965, 2.633474500151351, 2.4003210000228137, 2.3660233998671174, 3.1487483999226242, 2.367383899865672, 2.982429899973795, 5.43289290019311, 8.482244800077751, 3.0317965000867844, 2.44939409988001, 3.3487595000769943, 3.3838659999892116, 2.5991109998431057, 2.69974509999156, 3.498591900104657, 3.365880599943921, 2.682385800173506, 3.6155161999631673, 2.3820958000142127, 3.932350100018084, 3.348129600053653, 3.1820322000421584, 6.865407100180164, 2.750822399975732, 2.5338450998533517, 2.6988059000577778, 3.5343983999919146, 3.2991710999049246, 4.482547800056636, 3.2978986999951303, 2.2320711999200284, 2.615581599995494]","[17.33126200013794, 3.615108999889344, 9.38197709992528, 8.032724300166592, 7.464778100140393, 4.150142499944195, 5.517216499894857, 3.4826243999414146, 3.9843297998886555, 5.948732300195843, 9.19839350017719, 2.6487432001158595, 3.1990606000181288, 2.63245250005275, 3.198898399947211, 5.650546099990606, 3.9326136000454426, 3.3487421998288482, 6.6149294001515955, 2.41567280003801, 3.631360200000927, 2.6334834001027048, 2.4003290000837296, 2.3660315999295563, 3.1487571999896318, 2.367393499938771, 2.982437799917534, 5.432901400141418, 8.482253200141713, 3.0318046000320464, 2.4494024999439716, 3.3487678000237793, 3.3838745998218656, 2.5991187999024987, 2.6997539000585675, 3.498601899947971, 3.365888600004837, 2.6823937001172453, 3.615524500142783, 2.382103799842298, 3.932358300080523, 3.348137900000438, 3.1820406999904662, 6.865415300009772, 2.7508305001538247, 2.533852699911222, 2.6988150998950005, 3.5344077998306602, 3.2991794999688864, 4.4825557000003755, 3.297907399944961, 2.2320796998683363, 2.6155902000609785]",060947,001,2022-11-10_19h31.09.380,intentional binding task,2022.2.3,59.96347025499182,
0.7,1000,exp,4,5,53,11,366.1097461001482,367.1096702001523,367.1096702001523,367.1096702001523,space,0.3075963999144733,368.14297092009804,,368.44297380000353,368.44297380000353,368.44297380000353,400,54,"[17.331252000061795, 3.615100499941036, 9.381968999980018, 8.032715700101107, 7.4647699999623, 4.150133900111541, 5.517208100063726, 3.4826122999656945, 3.9843218000605702, 5.94872420001775, 9.198385500116274, 2.6487351001705974, 3.199034499935806, 2.632444200105965, 3.1988899998832494, 5.650538200046867, 3.932604500092566, 3.34873399999924, 6.614921000087634, 2.415664399974048, 3.631351799936965, 2.633474500151351, 2.4003210000228137, 2.3660233998671174, 3.1487483999226242, 2.367383899865672, 2.982429899973795, 5.43289290019311, 8.482244800077751, 3.0317965000867844, 2.44939409988001, 3.3487595000769943, 3.3838659999892116, 2.5991109998431057, 2.69974509999156, 3.498591900104657, 3.365880599943921, 2.682385800173506, 3.6155161999631673, 2.3820958000142127, 3.932350100018084, 3.348129600053653, 3.1820322000421584, 6.865407100180164, 2.750822399975732, 2.5338450998533517, 2.6988059000577778, 3.5343983999919146, 3.2991710999049246, 4.482547800056636, 3.2978986999951303, 2.2320711999200284, 2.615581599995494, 3.3825348000973463]","[17.33126200013794, 3.615108999889344, 9.38197709992528, 8.032724300166592, 7.464778100140393, 4.150142499944195, 5.517216499894857, 3.4826243999414146, 3.9843297998886555, 5.948732300195843, 9.19839350017719, 2.6487432001158595, 3.1990606000181288, 2.63245250005275, 3.198898399947211, 5.650546099990606, 3.9326136000454426, 3.3487421998288482, 6.6149294001515955, 2.41567280003801, 3.631360200000927, 2.6334834001027048, 2.4003290000837296, 2.3660315999295563, 3.1487571999896318, 2.367393499938771, 2.982437799917534, 5.432901400141418, 8.482253200141713, 3.0318046000320464, 2.4494024999439716, 3.3487678000237793, 3.3838745998218656, 2.5991187999024987, 2.6997539000585675, 3.498601899947971, 3.365888600004837, 2.6823937001172453, 3.615524500142783, 2.382103799842298, 3.932358300080523, 3.348137900000438, 3.1820406999904662, 6.865415300009772, 2.7508305001538247, 2.533852699911222, 2.6988150998950005, 3.5344077998306602, 3.2991794999688864, 4.4825557000003755, 3.297907399944961, 2.2320796998683363, 2.6155902000609785, 3.3825429000426084]",060947,001,2022-11-10_19h31.09.380,intentional binding task,2022.2.3,59.96347025499182,
0.4,400,unexp,4,6,54,1,371.8257196000777,372.82583390013315,372.82583390013315,372.82583390013315,space,0.34429650008678436,373.5923564201454,,373.8926481001545,373.8926481001545,373.8926481001545,400,55,"[17.331252000061795, 3.615100499941036, 9.381968999980018, 8.032715700101107, 7.4647699999623, 4.150133900111541, 5.517208100063726, 3.4826122999656945, 3.9843218000605702, 5.94872420001775, 9.198385500116274, 2.6487351001705974, 3.199034499935806, 2.632444200105965, 3.1988899998832494, 5.650538200046867, 3.932604500092566, 3.34873399999924, 6.614921000087634, 2.415664399974048, 3.631351799936965, 2.633474500151351, 2.4003210000228137, 2.3660233998671174, 3.1487483999226242, 2.367383899865672, 2.982429899973795, 5.43289290019311, 8.482244800077751, 3.0317965000867844, 2.44939409988001, 3.3487595000769943, 3.3838659999892116, 2.5991109998431057, 2.69974509999156, 3.498591900104657, 3.365880599943921, 2.682385800173506, 3.6155161999631673, 2.3820958000142127, 3.932350100018084, 3.348129600053653, 3.1820322000421584, 6.865407100180164, 2.750822399975732, 2.5338450998533517, 2.6988059000577778, 3.5343983999919146, 3.2991710999049246, 4.482547800056636, 3.2978986999951303, 2.2320711999200284, 2.615581599995494, 3.3825348000973463, 5.149183799978346]","[17.33126200013794, 3.615108999889344, 9.38197709992528, 8.032724300166592, 7.464778100140393, 4.150142499944195, 5.517216499894857, 3.4826243999414146, 3.9843297998886555, 5.948732300195843, 9.19839350017719, 2.6487432001158595, 3.1990606000181288, 2.63245250005275, 3.198898399947211, 5.650546099990606, 3.9326136000454426, 3.3487421998288482, 6.6149294001515955, 2.41567280003801, 3.631360200000927, 2.6334834001027048, 2.4003290000837296, 2.3660315999295563, 3.1487571999896318, 2.367393499938771, 2.982437799917534, 5.432901400141418, 8.482253200141713, 3.0318046000320464, 2.4494024999439716, 3.3487678000237793, 3.3838745998218656, 2.5991187999024987, 2.6997539000585675, 3.498601899947971, 3.365888600004837, 2.6823937001172453, 3.615524500142783, 2.382103799842298, 3.932358300080523, 3.348137900000438, 3.1820406999904662, 6.865415300009772, 2.7508305001538247, 2.533852699911222, 2.6988150998950005, 3.5344077998306602, 3.2991794999688864, 4.4825557000003755, 3.297907399944961, 2.2320796998683363, 2.6155902000609785, 3.3825429000426084, 5.149192200042307]",060947,001,2022-11-10_19h31.09.380,intentional binding task,2022.2.3,59.96347025499182,
0.1,1000,exp,4,7,55,9,379.04220360005274,380.04234690009616,380.04234690009616,380.04234690009616,space,0.2989709998946637,380.45886742000005,380.75891360011883,380.75891360011883,380.75891360011883,380.75891360011883,100,56,"[17.331252000061795, 3.615100499941036, 9.381968999980018, 8.032715700101107, 7.4647699999623, 4.150133900111541, 5.517208100063726, 3.4826122999656945, 3.9843218000605702, 5.94872420001775, 9.198385500116274, 2.6487351001705974, 3.199034499935806, 2.632444200105965, 3.1988899998832494, 5.650538200046867, 3.932604500092566, 3.34873399999924, 6.614921000087634, 2.415664399974048, 3.631351799936965, 2.633474500151351, 2.4003210000228137, 2.3660233998671174, 3.1487483999226242, 2.367383899865672, 2.982429899973795, 5.43289290019311, 8.482244800077751, 3.0317965000867844, 2.44939409988001, 3.3487595000769943, 3.3838659999892116, 2.5991109998431057, 2.69974509999156, 3.498591900104657, 3.365880599943921, 2.682385800173506, 3.6155161999631673, 2.3820958000142127, 3.932350100018084, 3.348129600053653, 3.1820322000421584, 6.865407100180164, 2.750822399975732, 2.5338450998533517, 2.6988059000577778, 3.5343983999919146, 3.2991710999049246, 4.482547800056636, 3.2978986999951303, 2.2320711999200284, 2.615581599995494, 3.3825348000973463, 5.149183799978346, 1.9176408001221716]","[17.33126200013794, 3.615108999889344, 9.38197709992528, 8.032724300166592, 7.464778100140393, 4.150142499944195, 5.517216499894857, 3.4826243999414146, 3.9843297998886555, 5.948732300195843, 9.19839350017719, 2.6487432001158595, 3.1990606000181288, 2.63245250005275, 3.198898399947211, 5.650546099990606, 3.9326136000454426, 3.3487421998288482, 6.6149294001515955, 2.41567280003801, 3.631360200000927, 2.6334834001027048, 2.4003290000837296, 2.3660315999295563, 3.1487571999896318, 2.367393499938771, 2.982437799917534, 5.432901400141418, 8.482253200141713, 3.0318046000320464, 2.4494024999439716, 3.3487678000237793, 3.3838745998218656, 2.5991187999024987, 2.6997539000585675, 3.498601899947971, 3.365888600004837, 2.6823937001172453, 3.615524500142783, 2.382103799842298, 3.932358300080523, 3.348137900000438, 3.1820406999904662, 6.865415300009772, 2.7508305001538247, 2.533852699911222, 2.6988150998950005, 3.5344077998306602, 3.2991794999688864, 4.4825557000003755, 3.297907399944961, 2.2320796998683363, 2.6155902000609785, 3.3825429000426084, 5.149192200042307, 1.9176495000720024]",060947,001,2022-11-10_19h31.09.380,intentional binding task,2022.2.3,59.96347025499182,
0.4,1000,exp,4,8,56,7,382.67527430015616,383.67506840010174,383.67506840010174,383.67506840010174,space,0.26280389982275665,384.35864511996044,,384.6586601000745,384.6586601000745,384.6586601000745,100,57,"[17.331252000061795, 3.615100499941036, 9.381968999980018, 8.032715700101107, 7.4647699999623, 4.150133900111541, 5.517208100063726, 3.4826122999656945, 3.9843218000605702, 5.94872420001775, 9.198385500116274, 2.6487351001705974, 3.199034499935806, 2.632444200105965, 3.1988899998832494, 5.650538200046867, 3.932604500092566, 3.34873399999924, 6.614921000087634, 2.415664399974048, 3.631351799936965, 2.633474500151351, 2.4003210000228137, 2.3660233998671174, 3.1487483999226242, 2.367383899865672, 2.982429899973795, 5.43289290019311, 8.482244800077751, 3.0317965000867844, 2.44939409988001, 3.3487595000769943, 3.3838659999892116, 2.5991109998431057, 2.69974509999156, 3.498591900104657, 3.365880599943921, 2.682385800173506, 3.6155161999631673, 2.3820958000142127, 3.932350100018084, 3.348129600053653, 3.1820322000421584, 6.865407100180164, 2.750822399975732, 2.5338450998533517, 2.6988059000577778, 3.5343983999919146, 3.2991710999049246, 4.482547800056636, 3.2978986999951303, 2.2320711999200284, 2.615581599995494, 3.3825348000973463, 5.149183799978346, 1.9176408001221716, 4.1159133000765]","[17.33126200013794, 3.615108999889344, 9.38197709992528, 8.032724300166592, 7.464778100140393, 4.150142499944195, 5.517216499894857, 3.4826243999414146, 3.9843297998886555, 5.948732300195843, 9.19839350017719, 2.6487432001158595, 3.1990606000181288, 2.63245250005275, 3.198898399947211, 5.650546099990606, 3.9326136000454426, 3.3487421998288482, 6.6149294001515955, 2.41567280003801, 3.631360200000927, 2.6334834001027048, 2.4003290000837296, 2.3660315999295563, 3.1487571999896318, 2.367393499938771, 2.982437799917534, 5.432901400141418, 8.482253200141713, 3.0318046000320464, 2.4494024999439716, 3.3487678000237793, 3.3838745998218656, 2.5991187999024987, 2.6997539000585675, 3.498601899947971, 3.365888600004837, 2.6823937001172453, 3.615524500142783, 2.382103799842298, 3.932358300080523, 3.348137900000438, 3.1820406999904662, 6.865415300009772, 2.7508305001538247, 2.533852699911222, 2.6988150998950005, 3.5344077998306602, 3.2991794999688864, 4.4825557000003755, 3.297907399944961, 2.2320796998683363, 2.6155902000609785, 3.3825429000426084, 5.149192200042307, 1.9176495000720024, 4.115921200020239]",060947,001,2022-11-10_19h31.09.380,intentional binding task,2022.2.3,59.96347025499182,
0.7,1000,exp,4,9,57,8,388.77488779998384,389.77489480003715,389.77489480003715,389.77489480003715,space,0.38800380006432533,390.8913725200342,,391.1916166001465,391.1916166001465,391.1916166001465,400,58,"[17.331252000061795, 3.615100499941036, 9.381968999980018, 8.032715700101107, 7.4647699999623, 4.150133900111541, 5.517208100063726, 3.4826122999656945, 3.9843218000605702, 5.94872420001775, 9.198385500116274, 2.6487351001705974, 3.199034499935806, 2.632444200105965, 3.1988899998832494, 5.650538200046867, 3.932604500092566, 3.34873399999924, 6.614921000087634, 2.415664399974048, 3.631351799936965, 2.633474500151351, 2.4003210000228137, 2.3660233998671174, 3.1487483999226242, 2.367383899865672, 2.982429899973795, 5.43289290019311, 8.482244800077751, 3.0317965000867844, 2.44939409988001, 3.3487595000769943, 3.3838659999892116, 2.5991109998431057, 2.69974509999156, 3.498591900104657, 3.365880599943921, 2.682385800173506, 3.6155161999631673, 2.3820958000142127, 3.932350100018084, 3.348129600053653, 3.1820322000421584, 6.865407100180164, 2.750822399975732, 2.5338450998533517, 2.6988059000577778, 3.5343983999919146, 3.2991710999049246, 4.482547800056636, 3.2978986999951303, 2.2320711999200284, 2.615581599995494, 3.3825348000973463, 5.149183799978346, 1.9176408001221716, 4.1159133000765, 2.716073099989444]","[17.33126200013794, 3.615108999889344, 9.38197709992528, 8.032724300166592, 7.464778100140393, 4.150142499944195, 5.517216499894857, 3.4826243999414146, 3.9843297998886555, 5.948732300195843, 9.19839350017719, 2.6487432001158595, 3.1990606000181288, 2.63245250005275, 3.198898399947211, 5.650546099990606, 3.9326136000454426, 3.3487421998288482, 6.6149294001515955, 2.41567280003801, 3.631360200000927, 2.6334834001027048, 2.4003290000837296, 2.3660315999295563, 3.1487571999896318, 2.367393499938771, 2.982437799917534, 5.432901400141418, 8.482253200141713, 3.0318046000320464, 2.4494024999439716, 3.3487678000237793, 3.3838745998218656, 2.5991187999024987, 2.6997539000585675, 3.498601899947971, 3.365888600004837, 2.6823937001172453, 3.615524500142783, 2.382103799842298, 3.932358300080523, 3.348137900000438, 3.1820406999904662, 6.865415300009772, 2.7508305001538247, 2.533852699911222, 2.6988150998950005, 3.5344077998306602, 3.2991794999688864, 4.4825557000003755, 3.297907399944961, 2.2320796998683363, 2.6155902000609785, 3.3825429000426084, 5.149192200042307, 1.9176495000720024, 4.115921200020239, 2.716083399951458]",060947,001,2022-11-10_19h31.09.380,intentional binding task,2022.2.3,59.96347025499182,
0.1,400,unexp,4,10,58,0,393.90805760002695,394.90820740000345,394.90820740000345,394.90820740000345,space,0.648427200037986,395.67477971992923,,395.97462809993885,395.97462809993885,395.97462809993885,100,59,"[17.331252000061795, 3.615100499941036, 9.381968999980018, 8.032715700101107, 7.4647699999623, 4.150133900111541, 5.517208100063726, 3.4826122999656945, 3.9843218000605702, 5.94872420001775, 9.198385500116274, 2.6487351001705974, 3.199034499935806, 2.632444200105965, 3.1988899998832494, 5.650538200046867, 3.932604500092566, 3.34873399999924, 6.614921000087634, 2.415664399974048, 3.631351799936965, 2.633474500151351, 2.4003210000228137, 2.3660233998671174, 3.1487483999226242, 2.367383899865672, 2.982429899973795, 5.43289290019311, 8.482244800077751, 3.0317965000867844, 2.44939409988001, 3.3487595000769943, 3.3838659999892116, 2.5991109998431057, 2.69974509999156, 3.498591900104657, 3.365880599943921, 2.682385800173506, 3.6155161999631673, 2.3820958000142127, 3.932350100018084, 3.348129600053653, 3.1820322000421584, 6.865407100180164, 2.750822399975732, 2.5338450998533517, 2.6988059000577778, 3.5343983999919146, 3.2991710999049246, 4.482547800056636, 3.2978986999951303, 2.2320711999200284, 2.615581599995494, 3.3825348000973463, 5.149183799978346, 1.9176408001221716, 4.1159133000765, 2.716073099989444, 2.4987746998667717]","[17.33126200013794, 3.615108999889344, 9.38197709992528, 8.032724300166592, 7.464778100140393, 4.150142499944195, 5.517216499894857, 3.4826243999414146, 3.9843297998886555, 5.948732300195843, 9.19839350017719, 2.6487432001158595, 3.1990606000181288, 2.63245250005275, 3.198898399947211, 5.650546099990606, 3.9326136000454426, 3.3487421998288482, 6.6149294001515955, 2.41567280003801, 3.631360200000927, 2.6334834001027048, 2.4003290000837296, 2.3660315999295563, 3.1487571999896318, 2.367393499938771, 2.982437799917534, 5.432901400141418, 8.482253200141713, 3.0318046000320464, 2.4494024999439716, 3.3487678000237793, 3.3838745998218656, 2.5991187999024987, 2.6997539000585675, 3.498601899947971, 3.365888600004837, 2.6823937001172453, 3.615524500142783, 2.382103799842298, 3.932358300080523, 3.348137900000438, 3.1820406999904662, 6.865415300009772, 2.7508305001538247, 2.533852699911222, 2.6988150998950005, 3.5344077998306602, 3.2991794999688864, 4.4825557000003755, 3.297907399944961, 2.2320796998683363, 2.6155902000609785, 3.3825429000426084, 5.149192200042307, 1.9176495000720024, 4.115921200020239, 2.716083399951458, 2.4987847998272628]",060947,001,2022-11-10_19h31.09.380,intentional binding task,2022.2.3,59.96347025499182,
0.4,1000,exp,4,11,59,10,398.4743621000089,399.47431019996293,399.47431019996293,399.47431019996293,space,0.2659099998418242,400.157849320001,,400.4578325001057,400.4578325001057,400.4578325001057,100,60,"[17.331252000061795, 3.615100499941036, 9.381968999980018, 8.032715700101107, 7.4647699999623, 4.150133900111541, 5.517208100063726, 3.4826122999656945, 3.9843218000605702, 5.94872420001775, 9.198385500116274, 2.6487351001705974, 3.199034499935806, 2.632444200105965, 3.1988899998832494, 5.650538200046867, 3.932604500092566, 3.34873399999924, 6.614921000087634, 2.415664399974048, 3.631351799936965, 2.633474500151351, 2.4003210000228137, 2.3660233998671174, 3.1487483999226242, 2.367383899865672, 2.982429899973795, 5.43289290019311, 8.482244800077751, 3.0317965000867844, 2.44939409988001, 3.3487595000769943, 3.3838659999892116, 2.5991109998431057, 2.69974509999156, 3.498591900104657, 3.365880599943921, 2.682385800173506, 3.6155161999631673, 2.3820958000142127, 3.932350100018084, 3.348129600053653, 3.1820322000421584, 6.865407100180164, 2.750822399975732, 2.5338450998533517, 2.6988059000577778, 3.5343983999919146, 3.2991710999049246, 4.482547800056636, 3.2978986999951303, 2.2320711999200284, 2.615581599995494, 3.3825348000973463, 5.149183799978346, 1.9176408001221716, 4.1159133000765, 2.716073099989444, 2.4987746998667717, 2.3655761999543756]","[17.33126200013794, 3.615108999889344, 9.38197709992528, 8.032724300166592, 7.464778100140393, 4.150142499944195, 5.517216499894857, 3.4826243999414146, 3.9843297998886555, 5.948732300195843, 9.19839350017719, 2.6487432001158595, 3.1990606000181288, 2.63245250005275, 3.198898399947211, 5.650546099990606, 3.9326136000454426, 3.3487421998288482, 6.6149294001515955, 2.41567280003801, 3.631360200000927, 2.6334834001027048, 2.4003290000837296, 2.3660315999295563, 3.1487571999896318, 2.367393499938771, 2.982437799917534, 5.432901400141418, 8.482253200141713, 3.0318046000320464, 2.4494024999439716, 3.3487678000237793, 3.3838745998218656, 2.5991187999024987, 2.6997539000585675, 3.498601899947971, 3.365888600004837, 2.6823937001172453, 3.615524500142783, 2.382103799842298, 3.932358300080523, 3.348137900000438, 3.1820406999904662, 6.865415300009772, 2.7508305001538247, 2.533852699911222, 2.6988150998950005, 3.5344077998306602, 3.2991794999688864, 4.4825557000003755, 3.297907399944961, 2.2320796998683363, 2.6155902000609785, 3.3825429000426084, 5.149192200042307, 1.9176495000720024, 4.115921200020239, 2.716083399951458, 2.4987847998272628, 2.3655840000137687]",060947,001,2022-11-10_19h31.09.380,intentional binding task,2022.2.3,59.96347025499182,
